"","subjID","trial","block","cost_one","amount_one","cost_two","amount_two","choice","trial_onset","fix_dura","choice_rt","feedback_onset"
"1",301,1,1,0.8,4,0,0.09,1,10.0217868254351,3.8,1.14283756089299,17.3767568746237
"2",301,2,1,0.5,4,0,4,0,18.2432083315557,5.6,0.531382382823722,26.4602095055707
"3",301,3,1,0.5,4,0,2.38,1,27.9331731901129,5.9,0.537196758897153,36.4447687601423
"4",301,4,1,0.5,3,0,0.89,1,37.9151387091524,4,0.503348233684164,44.4900350940397
"5",301,5,1,0.65,2,0,0.82,1,45.9967327464838,2,0.494564453103294,50.5711630016228
"6",301,6,1,0.65,3,0,2.78,0,52.090264840702,4.5,0.596214315397674,59.2572605633691
"7",301,7,1,0.8,3,0,0.13,1,60.6708879060661,4.8,0.362269325028137,67.9025642666516
"8",301,8,1,0.95,2,0,0.03,1,69.5473797187735,5.4,0.617448105538188,77.6551461514273
"9",301,9,1,0.5,2,0,1.79,1,79.0476684822024,4.1,0.760967479944611,85.9740116864259
"10",301,10,1,0.8,4,0,0.15,1,87.218988545849,5.1,0.343849694487517,94.7328776322504
"11",301,11,1,0.5,4,0,4,0,96.3962715150481,3.1,0.300650922541763,101.860172926236
"12",301,12,1,0.95,4,0,0.05,1,103.56686117708,2.3,0.705336079548715,108.635190662868
"13",301,13,1,0.95,3,0,0.03,1,109.935735718654,5.4,0.350779621755464,117.755740111334
"14",301,14,1,0.8,3,0,0.04,1,119.410549306257,4.2,0.259317854665369,125.939303586355
"15",301,15,1,0.95,4,0,0.02,1,127.686795571293,4.1,0.335073024360327,134.18578628188
"16",301,16,1,0.8,4,0,0.02,1,135.857957624856,5.1,0.222249083936504,143.288493626663
"17",301,17,1,0.65,2,0,1.02,1,145.075253487678,4.6,0.396857337435449,152.146005663081
"18",301,18,1,0.95,3,0,0.04,1,153.756306577486,5.1,0.301790175248925,161.214482098248
"19",301,19,1,0.8,2,0,0.04,1,162.92277217632,5.6,0.448227600885502,171.037412837687
"20",301,20,1,0.8,3,0,0.08,1,172.595541982489,4.4,0.328592240756734,179.38883516546
"21",301,21,1,0.5,2,0,2,0,181.06713176935,5.1,0.28416296528053,188.515458916588
"22",301,22,1,0.65,3,0,2.22,1,190.237822557836,2.7,0.315778017953107,195.314936614255
"23",301,23,1,0.8,2,0,0.07,1,197.006144617149,6,0.266743538572655,205.329889503548
"24",301,24,1,0.65,4,0,3.62,1,207.070893594429,5.7,0.618541535320674,215.449208843508
"25",301,25,1,0.65,4,0,1.45,1,216.83701457327,2.6,0.500605968672971,222.00983375759
"26",301,26,1,0.65,3,0,3,0,223.582860093131,5.1,0.280187036536518,231.080252136691
"27",301,27,1,0.95,4,0,0.04,1,232.80667110675,2.3,0.899389449034743,238.071336022665
"28",301,28,1,0.8,2,0,0.05,1,239.181051904733,2.3,0.654447746855112,244.19899592492
"29",301,29,1,0.5,3,0,1.78,1,245.549883783583,4.8,0.221280087095238,252.638775516653
"30",301,30,1,0.95,3,0,0.02,1,254.424095510775,6,0.426689641333041,262.908936023297
"31",301,31,1,0.5,4,0,3.57,1,264.488798270105,3,0.64795155726847,270.196566914901
"32",301,32,1,0.8,4,0,0.06,1,271.555866440396,4.8,0.374544733444964,278.795123334771
"33",301,33,1,0.65,3,0,1.67,1,280.427222530342,5.4,0.447121925321426,288.331060358272
"34",301,34,1,0.8,4,0,0.12,1,289.894382899517,5.3,0.397111733670954,297.658442636809
"35",301,35,1,0.95,2,0,0.02,1,299.267859089767,2.6,0.565511375936012,304.496561305542
"36",301,36,1,0.65,4,0,0.48,1,305.941919838324,2.4,0.454157719345631,310.856793880585
"37",301,37,1,0.8,3,0,0.06,1,312.409398202793,4.4,0.357739965964583,319.231569703778
"38",301,38,1,0.5,2,0,2,0,320.880679869989,3,0.331303298776447,326.278581259056
"39",301,39,1,0.95,2,0,0.02,1,327.953579797463,5.8,0.658936023296974,336.508752968614
"40",301,40,1,0.5,4,0,4,0,337.86014211427,5.1,0.298680141766681,345.324584709996
"41",301,41,1,0.65,2,0,0.41,1,347.033230705784,5.6,0.355461065525105,355.108446271041
"42",301,42,1,0.5,2,0,0.4,1,356.75962676438,2.3,0.369678417876685,361.491072035217
"43",301,43,1,0.65,2,0,0.61,1,363.128259550524,6,0.470275142959736,371.658367582019
"44",301,44,1,0.95,2,0,0.01,1,373.19593684969,4.8,0.731400632988425,380.785446402189
"45",301,45,1,0.5,3,0,1.33,1,382.061610106957,5.2,0.256422319872627,389.576490311612
"46",301,46,1,0.95,3,0,0.01,1,391.326458709595,2.8,0.547004444823642,396.760608007003
"47",301,47,1,0.65,4,0,2.17,1,398.220018376573,3.3,0.337788032632261,403.92037871857
"48",301,48,1,0.8,3,0,0.11,1,405.589063964062,3.9,0.218462372268505,411.783264282926
"49",301,49,1,0.65,4,0,2.89,1,413.574528616416,3.3,0.50982348693492,419.446790104144
"50",301,50,1,0.8,2,0,0.09,1,420.943192214527,5.8,0.370434101104365,429.165351232716
"51",301,51,1,0.95,2,0,0.04,1,430.802353876224,4.1,0.372171817005437,437.396669305435
"52",301,52,1,0.5,2,0,1.19,1,439.030731381277,3.2,0.254799161282335,444.540701422565
"53",301,53,1,0.5,3,0,2.22,1,446.292010931138,3.7,0.308292290214013,452.363570143046
"54",301,54,1,0.95,3,0,0.05,1,454.061829345949,4.7,0.333411548325103,461.155027643864
"55",301,55,1,0.95,4,0,0.06,1,462.828565379042,5.5,0.320640383269392,470.705729919683
"56",301,56,1,0.65,3,0,1.11,1,472.390077519747,4.6,0.468511750420021,479.552922317502
"57",301,57,2,0.5,4,0,4,0,481.09436085711,5.8,0.296419807512166,489.255616468443
"58",301,58,2,0.8,3,0,0.13,1,490.965972923392,4.8,0.499540585680052,498.327153953965
"59",301,59,2,0.65,4,0,2.17,1,499.834108767822,5.7,0.332264790138879,507.958309434308
"60",301,60,2,0.65,2,0,0.41,1,509.632668031874,5.6,0.286107279366661,517.581687263281
"61",301,61,2,0.95,3,0,0.04,1,519.304680574714,4.3,0.281333004672206,525.940483526659
"62",301,62,2,0.95,3,0,0.03,1,527.665470530329,5.4,0.290090713589507,535.396877483721
"63",301,63,2,0.8,2,0,0.09,1,537.115595042276,4.3,0.308183263255842,543.78689219446
"64",301,64,2,0.5,2,0,2,0,545.485562618606,5.9,0.763074939442731,554.210088232831
"65",301,65,2,0.95,2,0,0.02,1,555.454303483648,4.8,0.345765171733319,562.665327531203
"66",301,66,2,0.95,2,0,0.01,1,564.326342967208,5.4,0.361420415850944,572.152013996533
"67",301,67,2,0.65,4,0,3.62,0,573.797782644488,2.8,0.750473635227308,579.41535913322
"68",301,68,2,0.8,4,0,0.06,1,580.671313348218,5.7,0.450801585157251,588.879142036845
"69",301,69,2,0.8,2,0,0.04,1,590.435634197175,3.1,0.27522947014495,595.886413265895
"70",301,70,2,0.8,4,0,0.12,1,597.618672683691,4.1,0.262802767072571,604.045879017999
"71",301,71,2,0.95,2,0,0.02,1,605.791852131003,3.6,0.51142768431464,612.020433074039
"72",301,72,2,0.5,2,0,2,0,613.518130077061,3.7,0.290203690799672,619.571351823673
"73",301,73,2,0.65,4,0,4,0,621.287584278629,4.5,0.365533023317539,628.20996458994
"74",301,74,2,0.5,3,0,2.22,1,629.850811618797,2.4,0.30253440274555,634.618508353203
"75",301,75,2,0.5,3,0,1.78,1,636.322141874094,3.8,0.195753162966867,642.377851489482
"76",301,76,2,0.5,3,0,0.89,1,644.198473306566,2.5,0.260988416280725,649.025707450649
"77",301,77,2,0.8,2,0,0.01,1,650.771334916594,4.6,0.425668896189109,657.848218673316
"78",301,78,2,0.95,4,0,0.05,1,659.429104430445,2.4,0.360550175312255,664.249506218487
"79",301,79,2,0.95,4,0,0.06,1,665.898779135084,5.6,0.268095314843322,673.822781024885
"80",301,80,2,0.5,3,0,1.33,1,675.560432141779,5.1,0.253817918659479,682.99001692288
"81",301,81,2,0.95,4,0,0.04,1,684.762784200888,5.3,0.342266828469292,692.468996051328
"82",301,82,2,0.65,4,0,1.45,1,694.134169917724,5.2,0.384010722564199,701.780534658722
"83",301,83,2,0.65,2,0,1.02,1,703.403466109207,2.5,0.2867041624595,708.251305558321
"84",301,84,2,0.95,3,0,0.02,1,709.972726669416,4,0.632365837587713,716.667109489928
"85",301,85,2,0.5,2,0,2,0,718.041728883137,5.1,0.246967391459293,725.449630730433
"86",301,86,2,0.65,3,0,2.78,1,727.210012783016,2.4,0.318120122426535,731.993865258481
"87",301,87,2,0.8,3,0,0.04,1,733.682926299356,5.9,0.349091679031062,741.991842334378
"88",301,88,2,0.95,4,0,0.02,1,743.64934283606,4.9,0.196445247135671,750.808366949979
"89",301,89,2,0.8,3,0,0.08,1,752.618991469036,2.7,0.792121933221551,758.175169584323
"90",301,90,2,0.65,3,0,0.37,1,759.390433832487,4.8,0.281953984303073,766.534412621213
"91",301,91,2,0.8,3,0,0.11,1,768.260502930297,4.5,0.256461822393703,775.077700668857
"92",301,92,2,0.65,3,0,1.67,1,776.827817596319,3.5,0.327253895343347,782.716948635662
"93",301,93,2,0.8,4,0,0.15,1,784.396167623418,4.7,0.368895872934445,791.532507414623
"94",301,94,2,0.8,2,0,0.07,1,793.170082054637,2.5,0.333646983350263,798.067577357787
"95",301,95,2,0.65,2,0,0.82,1,799.740271319116,5.9,0.137452577223485,807.842312256368
"96",301,96,2,0.95,2,0,0.03,1,809.711514668866,4,0.57939572203486,816.354174468415
"97",301,97,2,0.65,4,0,2.89,1,817.783642717078,2.2,0.49990756410034,822.545530605763
"98",301,98,2,0.95,3,0,0.05,1,824.055722651219,4.2,0.476741705655513,830.792197383037
"99",301,99,2,0.65,3,0,1.11,1,832.322013095876,2.4,0.0139985083847023,836.805322095656
"100",301,100,2,0.5,4,0,0.79,1,838.79953181612,5.4,0.245158966044983,846.511051620314
"101",301,101,2,0.65,2,0,0.61,1,848.276847098382,4.7,0.333707422207681,855.374641119596
"102",301,102,2,0.5,4,0,2.38,1,857.043521902568,4.6,0.666343931069605,864.374107835562
"103",301,103,2,0.5,4,0,3.57,1,865.714072457104,3.4,0.203154355311199,871.503759059903
"104",301,104,2,0.8,2,0,0.05,1,873.307087858347,3.7,0.53096247102485,879.636428671878
"105",301,105,2,0.5,2,0,1.79,1,881.112523721264,5.7,0.0872867456400854,888.964398747928
"106",301,106,2,0.95,2,0,0.01,1,890.882661316445,2.2,0.10587900219798,895.251020350119
"107",301,107,2,0.8,3,0,0.06,1,897.151815693878,5.5,0.37404621162932,905.089161140264
"108",301,108,2,0.8,4,0,0.09,1,906.724742483065,5.8,0.495000955960677,915.080747498306
"109",301,109,2,0.95,4,0,0.07,1,916.59319711284,2.3,0.229513992583179,921.175450447248
"110",301,110,2,0.5,4,0,4,0,922.952409732789,4.1,0.399344416160602,929.510879389323
"111",301,111,2,0.65,3,0,2.22,1,931.119016355624,2.4,0.231108314332687,935.814517097481
"112",301,112,2,0.5,2,0,1.19,1,937.590077993778,5.3,0.291355584313351,945.244953157911
"113",301,113,3,0.65,3,0,1.67,1,946.961234595992,2.1,0.148855769975398,951.277626483122
"114",301,114,3,0.5,2,0,1.19,1,953.135852330096,5.2,0.290279140614984,960.684855602485
"115",301,115,3,0.65,3,0,0.37,1,962.401310456633,2.1,0.305382139487847,966.868010226413
"116",301,116,3,0.8,2,0,0.01,1,968.570657369353,4.8,0.331114871751197,975.763551339847
"117",301,117,3,0.95,4,0,0.07,1,977.440285619028,2.7,0.410605399836641,982.610629180354
"118",301,118,3,0.8,2,0,0.05,1,984.206662574206,6,0.469281259530362,992.737561841197
"119",301,119,3,0.95,3,0,0.01,1,994.274935966413,5.9,0.0161332246220809,1002.2530460394
"120",301,120,3,0.95,2,0,0.01,1,1004.24323203307,5.2,0.17181542526032,1011.69186097957
"121",301,121,3,0.95,4,0,0.06,1,1013.52881629906,4.4,0.219734353446711,1020.20633114805
"122",301,122,3,0.5,3,0,0.89,1,1021.99378625344,3,0.185951402418596,1027.24587080147
"123",301,123,3,0.5,3,0,0.3,1,1029.06660717587,3.9,0.757662304008136,1035.78089136649
"124",301,124,3,0.8,3,0,0.08,1,1037.02961662013,5.7,0.337915625775167,1045.1086900016
"125",301,125,3,0.65,4,0,2.89,1,1046.77326737992,4.2,0.293870314803826,1053.35772890526
"126",301,126,3,0.5,4,0,3.57,1,1055.06964610481,5.2,0.0267688833901047,1062.38323133782
"127",301,127,3,0.5,3,0,1.78,1,1064.36538567891,3.7,0.355991584382991,1070.4815590381
"128",301,128,3,0.95,2,0,0.02,1,1072.13554934576,3.4,0.296599939008047,1077.88962719101
"129",301,129,3,0.95,3,0,0.05,1,1079.59969527755,5.9,0.633083203370006,1088.20157069924
"130",301,130,3,0.65,2,0,0.41,1,1089.57601983659,6,0.0394954105972829,1097.67286421719
"131",301,131,3,0.8,2,0,0.04,1,1099.63979389165,2.6,0.293164009727207,1104.59865675627
"132",301,132,3,0.95,4,0,0.05,1,1106.31307091019,5.1,0.278583234181951,1113.74951727919
"133",301,133,3,0.8,4,0,0.09,1,1115.49179137613,2,0.239103229568173,1119.7977139101
"134",301,134,3,0.65,3,0,3,0,1121.57320607201,3.8,0.302067877972149,1127.73291041934
"135",301,135,3,0.8,4,0,0.06,1,1129.43793837923,4.5,0.440283643902148,1136.44429828512
"136",301,136,3,0.95,2,0,0.03,1,1138.01085173756,3.3,0.118532449740542,1143.49198256833
"137",301,137,3,0.95,2,0,0.02,1,1145.37982187523,2.9,0.47501228528381,1150.79488671467
"138",301,138,3,0.5,2,0,1.79,1,1152.32738148849,3.4,0.0721398989680893,1157.86677616765
"139",301,139,3,0.65,3,0,2.78,1,1159.80112455777,3.2,0.330665333061461,1165.39392625037
"140",301,140,3,0.65,3,0,2.22,1,1167.06970456855,4.9,0.409378846557956,1174.43998539987
"141",301,141,3,0.95,4,0,0.02,1,1176.03757361295,5.3,0.491682349167604,1183.88788275968
"142",301,142,3,0.8,3,0,0.04,1,1185.40331797475,3.6,0.271070249702916,1191.33438449542
"143",301,143,3,0.95,3,0,0.03,1,1193.07063524794,4.1,0.359452005227013,1199.58911926759
"144",301,144,3,0.65,2,0,0.82,1,1201.23537853686,6,0.0319595146561369,1209.35393152791
"145",301,145,3,0.65,4,0,3.62,1,1211.3287245742,6,0.362035865129201,1219.74910408282
"146",301,146,3,0.65,4,0,1.45,1,1221.39365960836,2.7,0.21013168560421,1226.36386680698
"147",301,147,3,0.8,2,0,0.07,1,1228.16122756454,5.9,0.140357592621513,1236.26778047975
"148",301,148,3,0.5,4,0,2.38,1,1238.13431805218,5,0.241023052090895,1245.4426261434
"149",301,149,3,0.65,3,0,1.11,0,1247.20825808103,5.1,1.07958572916141,1255.44104288236
"150",301,150,3,0.95,3,0,0.02,1,1256.3695816367,4.4,0.350193799368299,1263.17672598365
"151",301,151,3,0.65,2,0,1.02,1,1264.83646706833,5.2,0.292389760314563,1272.39151383141
"152",301,152,3,0.65,4,0,2.17,1,1274.10908147158,3.4,0.285471683802825,1279.86333352295
"153",301,153,3,0.5,2,0,2,0,1281.58513267317,2.3,0.23880538055937,1286.18178349142
"154",301,154,3,0.5,4,0,4,0,1287.95070835921,5.7,0.266437789059637,1295.98376446385
"155",301,155,3,0.5,3,0,1.33,1,1297.72397336898,4.7,0.292394895642246,1304.78048962585
"156",301,156,3,0.8,4,0,0.18,1,1306.49569857048,3.5,0.307523571154434,1312.36429619938
"157",301,157,3,0.8,3,0,0.06,1,1314.06660283059,4.8,0.31559670138131,1321.24303412544
"158",301,158,3,0.5,4,0,4,0,1322.93454353257,4.8,0.192107870324435,1329.98511386997
"159",301,159,3,0.65,2,0,0.61,1,1331.79668407938,5.2,0.545285690132914,1339.60952113464
"160",301,160,3,0.5,2,0,2,0,1341.07192935053,5.5,0.238960625466916,1348.87254669593
"161",301,161,3,0.8,3,0,0.11,1,1350.64019089198,4.1,0.3208691028658,1357.12748925136
"162",301,162,3,0.5,3,0,2.22,1,1358.81317164161,3.2,0.317990949182331,1364.3914478622
"163",301,163,3,0.8,2,0,0.09,1,1366.08066770321,5.3,0.32228803342241,1373.76680911276
"164",301,164,3,0.8,4,0,0.15,1,1375.45043065648,5.3,0.297488745732153,1383.10967914472
"165",301,165,3,0.5,4,0,4,0,1384.81856887107,5.2,0.812175388033211,1392.892290846
"166",301,166,3,0.95,3,0,0.04,1,1394.08565924177,5.8,0.486036648859226,1402.43560022501
"167",301,167,3,0.8,4,0,0.12,1,1403.95646782678,4,0.514546408352089,1410.65552774578
"168",301,168,3,0.95,4,0,0.04,1,1412.15051092561,2.4,0.154650789813331,1416.84145900191
"169",302,1,1,0.8,4,0,3.19,0,10.0168878999539,3.8,0.0585293000331149,15.9320046999492
"170",302,2,1,0.5,4,0,4,0,17.8807181000011,5.6,0.499586199992336,26.0335890999995
"171",302,3,1,0.5,4,0,2.38,1,27.5410228999099,5.9,0.511428899946623,35.9857992999023
"172",302,4,1,0.5,3,0,1.79,1,37.4841088999528,4,0.47394890000578,44.0096836999292
"173",302,5,1,0.65,2,0,2,0,45.5426971999696,2,0.518019799957983,50.1085313999793
"174",302,6,1,0.65,3,0,3,0,51.6019518999383,4.5,0.507611999986693,58.6420394999441
"175",302,7,1,0.8,3,0,3,0,60.1428434998961,4.8,0.522703199996613,67.5186408999143
"176",302,8,1,0.95,2,0,0.03,0,69.0048656999134,5.4,1.05989010003395,77.4988797999686
"177",302,9,1,0.5,2,0,1.79,1,78.4456653000088,4.1,0.465189200011082,85.0565562999109
"178",302,10,1,0.8,4,0,4,0,86.5976565999445,5.1,0.396736999973655,94.1405750999693
"179",302,11,1,0.5,4,0,4,0,95.7492960999953,3.1,0.514607999939471,101.412358599948
"180",302,12,1,0.95,4,0,0.05,0,102.904512399924,2.3,0.492664800025523,107.747321199975
"181",302,13,1,0.95,3,0,0.03,0,109.260590899969,5.4,0.462094299960881,117.153535099933
"182",302,14,1,0.8,3,0,1.66,1,118.697476599948,4.2,0.537167800008319,125.473263799911
"183",302,15,1,0.95,4,0,0.02,0,126.944412999903,4.1,0.590172299998812,133.665161199984
"184",302,16,1,0.8,4,0,0.71,1,135.084110799944,5.1,0.684290800010785,142.9025502
"185",302,17,1,0.65,2,0,2,0,144.225040099933,4.6,0.546898000058718,151.415182999917
"186",302,18,1,0.95,3,0,0.04,0,152.877222299925,5.1,0.496016999939457,160.516150299925
"187",302,19,1,0.8,2,0,1.17,1,162.027866599965,5.6,0.592881000018679,170.262049499899
"188",302,20,1,0.8,3,0,3,0,171.677742499975,4.4,0.511095799971372,178.625989299966
"189",302,21,1,0.5,2,0,2,0,180.120911799953,5.1,0.397456399980001,187.669082699926
"190",302,22,1,0.65,3,0,3,0,189.278945299913,2.7,0.614356399979442,194.63551199995
"191",302,23,1,0.8,2,0,2,0,196.026751299971,6,0.560507099959068,204.625787299941
"192",302,24,1,0.65,4,0,4,0,206.071688399999,5.7,0.417449799948372,214.217910200008
"193",302,25,1,0.65,4,0,2.38,1,215.807277199929,2.6,0.595777899958193,221.04300569999
"194",302,26,1,0.65,3,0,3,0,222.456850499962,5.1,0.542348899994977,230.128896999988
"195",302,27,1,0.95,4,0,0.04,0,231.595190999913,2.3,0.524541200022213,236.463092299993
"196",302,28,1,0.8,2,0,1.76,1,237.944521599915,2.3,0.508588999975473,242.787639099988
"197",302,29,1,0.5,3,0,3,0,244.286466399906,4.8,0.573067200020887,251.690619800007
"198",302,30,1,0.95,3,0,0.02,0,253.123919199919,6,0.461725800065324,261.674215200008
"199",302,31,1,0.5,4,0,3.57,1,263.222173499991,3,1.03059799992479,269.294359199936
"200",302,32,1,0.8,4,0,2.12,1,270.270823600003,4.8,0.549021800048649,277.649780599982
"201",302,33,1,0.65,3,0,2.68,1,279.107231499976,5.4,0.585846200003289,287.132455499959
"202",302,34,1,0.8,4,0,4,0,288.553764699958,5.3,0.452723399968818,296.355136599974
"203",302,35,1,0.95,2,0,0.02,0,297.911190199899,2.6,0.43807110004127,302.989592599915
"204",302,36,1,0.65,4,0,0.79,1,304.559617099934,2.4,0.57019640004728,309.579977299902
"205",302,37,1,0.8,3,0,2.48,1,311.015618699952,4.4,0.881256500026211,318.346491199918
"206",302,38,1,0.5,2,0,2,0,319.471639399999,3,0.434941700077616,324.955929899937
"207",302,39,1,0.95,2,0,0.02,0,326.527327099931,5.8,0.886070700013079,335.257624799968
"208",302,40,1,0.5,4,0,4,0,336.380765200011,5.1,0.810201199958101,344.344791399897
"209",302,41,1,0.65,2,0,1.19,1,345.541022399906,5.6,0.565706299967133,353.745451199939
"210",302,42,1,0.5,2,0,0.4,0,355.188135399949,2.3,1.36144189990591,360.893624099903
"211",302,43,1,0.65,2,0,1.79,1,361.539173299912,6,0.562869699904695,370.140210999991
"212",302,44,1,0.95,2,0,0.01,0,371.585869199946,4.8,0.483858900028281,378.910461499938
"213",302,45,1,0.5,3,0,2.68,1,380.434905199916,5.2,0.491661099949852,388.174218699918
"214",302,46,1,0.95,3,0,0.01,0,389.689872999908,2.8,0.486436699982733,395.009945699945
"215",302,47,1,0.65,4,0,3.57,1,396.531248899992,3.3,0.864395900047384,402.738243100001
"216",302,48,1,0.8,3,0,3,0,403.880670299986,3.9,0.475346599938348,410.296707200003
"217",302,49,1,0.65,4,0,4,0,411.830618699896,3.3,0.441465300042182,417.619925699895
"218",302,50,1,0.8,2,0,2,0,419.185811899952,5.8,0.480100199929439,427.509905499988
"219",302,51,1,0.95,2,0,0.04,0,429.038446199964,4.1,0.505868799984455,435.685358499992
"220",302,52,1,0.5,2,0,1.19,1,437.187654599897,3.2,0.391237500007264,442.811424299958
"221",302,53,1,0.5,3,0,3,0,444.429019699921,3.7,0.394551699981093,450.571515299962
"222",302,54,1,0.95,3,0,0.05,0,452.183544399915,4.7,0.534430100000463,459.45819299994
"223",302,55,1,0.95,4,0,0.06,0,460.93012029992,5.5,0.724811600055546,469.185905599967
"224",302,56,1,0.65,3,0,1.79,1,470.469608099898,4.6,1.53362960007507,478.64419989998
"225",302,57,2,0.5,4,0,4,0,479.119062299957,5.8,0.485035700025037,487.441672899993
"226",302,58,2,0.8,3,0,3,0,488.964964199928,4.8,0.704187199939042,496.497181999963
"227",302,59,2,0.65,4,0,3.57,1,497.800903499941,5.7,0.395762700005434,505.938461099984
"228",302,60,2,0.65,2,0,1.19,1,507.549678799929,5.6,0.461421699961647,515.649876499898
"229",302,61,2,0.95,3,0,0.04,1,517.195865799906,4.3,1.74777669995092,525.283829299966
"230",302,62,2,0.95,3,0,0.03,0,525.543578199926,5.4,0.460311799892224,533.433770600008
"231",302,63,2,0.8,2,0,2,0,534.979018999962,4.3,0.492859999998473,541.802029499901
"232",302,64,2,0.5,2,0,2,0,543.318883599946,5.9,0.554014900000766,551.857717499952
"233",302,65,2,0.95,2,0,0.02,0,553.310163299902,4.8,0.567250199965201,560.725238799932
"234",302,66,2,0.95,2,0,0.01,0,562.163696500007,5.4,0.703348000068218,570.300685899914
"235",302,67,2,0.65,4,0,4,0,571.604474999942,2.8,0.606651399983093,577.059321499895
"236",302,68,2,0.8,4,0,2.12,1,578.460593899945,5.7,0.595100300037302,586.793483299902
"237",302,69,2,0.8,2,0,1.17,1,588.206444599899,3.1,0.489172300091013,593.842743299901
"238",302,70,2,0.8,4,0,4,0,595.362462699995,4.1,0.492954900022596,601.985250499914
"239",302,71,2,0.95,2,0,0.02,0,603.501092799939,3.6,NA,NA
"240",302,72,2,0.5,2,0,2,0,611.129993399954,3.7,0.493030799902044,617.365006699925
"241",302,73,2,0.65,4,0,4,0,618.882213799981,4.5,0.604659299948253,626.018141499953
"242",302,74,2,0.5,3,0,3,0,627.421968599898,2.4,1.10719160002191,632.97095759993
"243",302,75,2,0.5,3,0,3,0,633.870138400001,3.8,0.438232699991204,640.138955499977
"244",302,76,2,0.5,3,0,1.79,1,641.706650599954,2.5,0.934179399977438,647.178708199994
"245",302,77,2,0.8,2,0,0.39,1,648.251896600006,4.6,0.725294500007294,655.617929299944
"246",302,78,2,0.95,4,0,0.05,0,656.900880599977,2.4,0.965467600035481,662.315102899913
"247",302,79,2,0.95,4,0,0.06,0,663.357479800005,5.6,0.436997400014661,671.494740099995
"248",302,80,2,0.5,3,0,2.68,0,673.066970999935,5.1,NA,NA
"249",302,81,2,0.95,4,0,0.04,0,682.19768360001,5.3,0.623356799944304,690.173959399923
"250",302,82,2,0.65,4,0,2.38,1,691.559472499997,5.2,0.50151840003673,699.302109999931
"251",302,83,2,0.65,2,0,2,0,700.807550999918,2.5,0.559609699994326,705.906419000006
"252",302,84,2,0.95,3,0,0.02,0,707.353717499995,4,0.449498300091363,713.836670599994
"253",302,85,2,0.5,2,0,2,0,715.392721499898,5.1,0.536354799987748,723.065576799912
"254",302,86,2,0.65,3,0,3,0,724.53554959991,2.4,0.779211200075224,729.76092749997
"255",302,87,2,0.8,3,0,1.66,1,730.989314200007,5.9,1.00476129993331,739.93237439997
"256",302,88,2,0.95,4,0,0.02,0,740.933413099963,4.9,1.39632309996523,749.258852900006
"257",302,89,2,0.8,3,0,3,0,749.869055999909,2.7,NA,NA
"258",302,90,2,0.65,3,0,0.6,1,756.605593999964,4.8,0.474605099996552,763.924947199994
"259",302,91,2,0.8,3,0,3,0,765.456716299988,4.5,0.641167200054042,772.635037599946
"260",302,92,2,0.65,3,0,2.68,1,774.002436499926,3.5,0.73136269999668,780.285479199956
"261",302,93,2,0.8,4,0,4,0,781.562113699969,4.7,1.62783359992318,789.930415399955
"262",302,94,2,0.8,2,0,2,0,790.310552299954,2.5,0.471436099964194,795.322394799907
"263",302,95,2,0.65,2,0,2,0,796.856584799942,5.9,0.498153200023808,805.292041499983
"264",302,96,2,0.95,2,0,0.03,1,806.801464499906,4,0.443842199980281,813.296334399958
"265",302,97,2,0.65,4,0,4,0,814.858990599983,2.2,0.448106099967845,819.554361499962
"266",302,98,2,0.95,3,0,0.05,0,821.11361869995,4.2,0.42830759997014,827.782360899961
"267",302,99,2,0.65,3,0,1.79,1,829.360193099943,2.4,0.491891699959524,834.28326149995
"268",302,100,2,0.5,4,0,0.79,1,835.796715199947,5.4,0.384547399939038,843.618739799946
"269",302,101,2,0.65,2,0,1.79,1,845.240525399917,4.7,0.401234099990688,852.378972699982
"270",302,102,2,0.5,4,0,2.38,1,853.986176699982,4.6,0.41741340002045,861.044152599992
"271",302,103,2,0.5,4,0,3.57,1,862.632202599896,3.4,0.0287079000845551,868.091584199923
"272",302,104,2,0.8,2,0,1.76,1,870.071826900006,3.7,1.10522590007167,876.912493699929
"273",302,105,2,0.5,2,0,1.79,1,877.814510899945,5.7,0.426102299941704,885.970257899957
"274",302,106,2,0.95,2,0,0.01,0,887.55044199992,2.2,0.517213399987668,892.306718399981
"275",302,107,2,0.8,3,0,2.48,1,893.796582399984,5.5,0.398480799980462,901.74293800001
"276",302,108,2,0.8,4,0,3.19,1,903.354172999971,5.8,0.633244900032878,911.87753139995
"277",302,109,2,0.95,4,0,0.07,0,913.25248939998,2.3,0.71635540004354,918.29814259999
"278",302,110,2,0.5,4,0,4,0,919.589922999963,4.1,0.625531399971806,926.346338699921
"279",302,111,2,0.65,3,0,3,0,927.729645899963,2.4,0.603067399933934,932.776517699938
"280",302,112,2,0.5,2,0,1.19,1,934.180488099926,5.3,0.411648300010711,941.931324000005
"281",302,113,3,0.65,3,0,2.68,1,943.527580599999,2.1,0.85767830000259,948.525150300004
"282",302,114,3,0.5,2,0,1.19,1,949.674678599928,5.2,0.442443800042383,957.356936499942
"283",302,115,3,0.65,3,0,0.6,1,958.921057799947,2.1,0.512691900017671,963.579212499899
"284",302,116,3,0.8,2,0,0.39,1,965.07330649998,4.8,0.624826800078154,972.546167599969
"285",302,117,3,0.95,4,0,0.07,0,973.930869099917,2.7,0.566041499958374,979.230902099982
"286",302,118,3,0.8,2,0,1.76,0,980.672561999992,6,1.02481520001311,989.730834999937
"287",302,119,3,0.95,3,0,0.01,1,990.712446999969,5.9,0.398890199954621,999.056121099973
"288",302,120,3,0.95,2,0,0.01,0,1000.66645509994,5.2,NA,NA
"289",302,121,3,0.95,4,0,0.06,0,1009.89554619999,4.4,0.417338100029156,1016.7456756999
"290",302,122,3,0.5,3,0,1.79,1,1018.33537559991,3,0.506224000011571,1023.88614109997
"291",302,123,3,0.5,3,0,0.6,1,1025.3867586999,3.9,0.622390000033192,1031.93995119992
"292",302,124,3,0.8,3,0,3,0,1033.32320909994,5.7,0.504951400100254,1041.64581819996
"293",302,125,3,0.65,4,0,4,0,1043.14861889998,4.2,0.434930300107226,1049.82823350001
"294",302,126,3,0.5,4,0,3.57,1,1051.3997065,5.2,0.397402900038287,1059.0348891
"295",302,127,3,0.5,3,0,3,1,1060.6445558999,3.7,1.57415369991213,1067.95659349998
"296",302,128,3,0.95,2,0,0.02,0,1068.38984199998,3.4,NA,NA
"297",302,129,3,0.95,3,0,0.05,0,1075.81851569994,5.9,0.549044099985622,1084.30992789997
"298",302,130,3,0.65,2,0,1.19,1,1085.76669089997,6,0.454179599997588,1094.25949809991
"299",302,131,3,0.8,2,0,1.17,1,1095.81150009995,2.6,1.23392699996475,1101.67458479991
"300",302,132,3,0.95,4,0,0.05,0,1102.44897579995,5.1,0.496335899922997,1110.07497249998
"301",302,133,3,0.8,4,0,3.19,1,1111.58642790001,2,0.499777500052005,1116.12419859995
"302",302,134,3,0.65,3,0,3,0,1117.6334851,3.8,0.459938999963924,1123.92216959991
"303",302,135,3,0.8,4,0,2.12,0,1125.4711499,4.5,0.817265399964526,1132.82000349998
"304",302,136,3,0.95,2,0,0.03,0,1134.00974859996,3.3,0.744758500019088,1140.08479919995
"305",302,137,3,0.95,2,0,0.02,0,1141.3507384999,2.9,0.47297050000634,1146.76241229998
"306",302,138,3,0.5,2,0,1.79,1,1148.29796809994,3.4,0.930005599977449,1154.67666369991
"307",302,139,3,0.65,3,0,3,0,1155.75523989997,3.2,0.817841200041585,1161.80246719997
"308",302,140,3,0.65,3,0,3,0,1162.99083849997,4.9,0.295474299928173,1170.23694769992
"309",302,141,3,0.95,4,0,0.02,0,1171.94983329996,5.3,0.414088999968953,1179.70647949993
"310",302,142,3,0.8,3,0,1.66,1,1181.29976989992,3.6,0.630007099942304,1187.57305629994
"311",302,143,3,0.95,3,0,0.03,0,1188.94920949999,4.1,0.617481100023724,1195.70690909994
"312",302,144,3,0.65,2,0,2,0,1197.09640449996,6,0.472311300109141,1205.61170629994
"313",302,145,3,0.65,4,0,4,0,1207.14634769992,6,0.435022499994375,1215.62192109996
"314",302,146,3,0.65,4,0,2.38,1,1217.1941837999,2.7,0.957611099933274,1222.8934227
"315",302,147,3,0.8,2,0,2,0,1223.94212839997,5.9,0.49423760001082,1232.37033389998
"316",302,148,3,0.5,4,0,2.38,1,1233.881864,5,0.914521200000308,1241.82659139996
"317",302,149,3,0.65,3,0,1.79,1,1242.91891549993,5.1,0.514264199999161,1250.5758489999
"318",302,150,3,0.95,3,0,0.02,0,1252.06774729991,4.4,0.470426000072621,1258.98177700001
"319",302,151,3,0.65,2,0,2,0,1260.51723579993,5.2,0.448549300082959,1268.1950675
"320",302,152,3,0.65,4,0,3.57,0,1269.75523699995,3.4,NA,NA
"321",302,153,3,0.5,2,0,2,0,1277.18358389998,2.3,NA,NA
"322",302,154,3,0.5,4,0,4,0,1283.51078199991,5.7,0.518534100032412,1291.77107439993
"323",302,155,3,0.5,3,0,2.68,1,1293.25836149999,4.7,0.58115490002092,1300.58004559996
"324",302,156,3,0.8,4,0,4,0,1302.0072637999,3.5,1.25630919996183,1308.80835149996
"325",302,157,3,0.8,3,0,2.48,0,1309.55904779991,4.8,0.948714399943128,1317.3392108999
"326",302,158,3,0.5,4,0,4,1,1318.39619479992,4.8,1.29764460003935,1326.53211819998
"327",302,159,3,0.65,2,0,1.79,1,1327.24147899996,5.2,1.03529510006774,1335.5153825999
"328",302,160,3,0.5,2,0,2,0,1336.48701149994,5.5,NA,NA
"329",302,161,3,0.8,3,0,3,0,1346.01459499996,4.1,0.505776799982414,1352.65083239996
"330",302,162,3,0.5,3,0,3,0,1354.15327279991,3.2,0.467877699993551,1359.86103109992
"331",302,163,3,0.8,2,0,2,0,1361.39956159994,5.3,0.465496000018902,1369.20666659996
"332",302,164,3,0.8,4,0,4,0,1370.74834159994,5.3,NA,NA
"333",302,165,3,0.5,4,0,4,0,1380.08639690001,5.2,0.48452009994071,1387.80589620001
"334",302,166,3,0.95,3,0,0.04,0,1389.32705829991,5.8,0.428728199913166,1397.58795199997
"335",302,167,3,0.8,4,0,4,0,1399.16833419993,4,NA,NA
"336",302,168,3,0.95,4,0,0.04,0,1407.19664849993,2.4,0.491846499964595,1412.13907739997
"337",304,1,1,0.8,4,0,1.77,1,10.0140966000035,3.8,1.22348600008991,17.0638710000785
"338",304,2,1,0.5,4,0,4,0,17.8457642000867,5.6,0.449340499937534,25.9196628000354
"339",304,3,1,0.5,4,0,2.38,1,27.4755414000247,5.9,0.175256799906492,35.5761828001123
"340",304,4,1,0.5,3,0,1.79,1,37.406494300114,4,0.120575200067833,43.5522572000045
"341",304,5,1,0.65,2,0,2,0,45.4373390000546,2,0.0556212000083178,49.5207914001076
"342",304,6,1,0.65,3,0,2.22,1,51.4713641999988,4.5,0.579498599981889,58.5754869000521
"343",304,7,1,0.8,3,0,1.31,1,60.0010314000538,4.8,0.214420999982394,67.0395788000897
"344",304,8,1,0.95,2,0,0.18,1,68.830275000073,5.4,1.28014689998236,77.5356274000369
"345",304,9,1,0.5,2,0,1.79,1,78.2605723000597,4.1,0.0787444999441504,84.4635730000446
"346",304,10,1,0.8,4,0,2.96,1,86.3901444000658,5.1,0.332838500034995,93.8479603000451
"347",304,11,1,0.5,4,0,4,0,95.5203152000904,3.1,0.0351936999941245,100.679437900078
"348",304,12,1,0.95,4,0,0.56,1,102.649494300014,2.3,0.130085099954158,107.104017200065
"349",304,13,1,0.95,3,0,0.32,1,108.978996400023,5.4,0.123718899907544,116.527549100108
"350",304,14,1,0.8,3,0,0.44,1,118.408907400095,4.2,0.166477099992335,124.799258900108
"351",304,15,1,0.95,4,0,0.28,1,126.637934099999,4.1,0.181134399957955,132.943486300064
"352",304,16,1,0.8,4,0,0.39,1,134.7676715001,5.1,0.41952949995175,142.311832000036
"353",304,17,1,0.65,2,0,2,0,143.897485800087,4.6,0.0621135999681428,150.583328100038
"354",304,18,1,0.95,3,0,0.42,1,152.526427000063,5.1,0.293471800046973,159.944151300006
"355",304,19,1,0.8,2,0,0.59,1,161.655872300034,5.6,0.303553900099359,169.5838582
"356",304,20,1,0.8,3,0,0.88,1,171.285377500113,4.4,0.138449999969453,177.847601400106
"357",304,21,1,0.5,2,0,2,0,179.7144233,5.1,0.337766199954785,187.179755100049
"358",304,22,1,0.65,3,0,1.78,1,188.847246200079,2.7,0.155462600057945,193.727905300097
"359",304,23,1,0.8,2,0,1.19,1,195.577556700096,6,0.43806900002528,204.039816800039
"360",304,24,1,0.65,4,0,4,0,205.60724120005,5.7,0.10048770008143,213.431452000048
"361",304,25,1,0.65,4,0,2.38,1,215.336201100028,2.6,0.0953693999908864,220.056083100033
"362",304,26,1,0.65,3,0,2.66,1,221.965900100069,5.1,0.542078500031494,229.631822400028
"363",304,27,1,0.95,4,0,0.42,1,231.094813200063,2.3,0.0849401000887156,235.503767200047
"364",304,28,1,0.8,2,0,0.89,1,237.424117800081,2.3,0.0999618999194354,241.848608700093
"365",304,29,1,0.5,3,0,3,0,243.753786400077,4.8,0.478308200021274,251.05567380006
"366",304,30,1,0.95,3,0,0.21,1,252.582626200048,6,1.04843369999435,261.655651200097
"367",304,31,1,0.5,4,0,3.57,1,262.612519300077,3,0.0991510000312701,267.736208100105
"368",304,32,1,0.8,4,0,1.18,1,269.64246090001,4.8,0.229084399994463,276.695558900014
"369",304,33,1,0.65,3,0,1.33,1,278.471630000044,5.4,0.0561265000142157,285.951884900103
"370",304,34,1,0.8,4,0,2.36,1,287.90090820007,5.3,0.422691099927761,295.648107400048
"371",304,35,1,0.95,2,0,0.14,0,297.230498900055,2.6,0.35300250002183,302.207621500012
"372",304,36,1,0.65,4,0,0.79,1,303.859895400004,2.4,0.00426449999213219,308.303460200084
"373",304,37,1,0.8,3,0,0.66,1,310.30436910002,4.4,0.023438400006853,316.753968000063
"374",304,38,1,0.5,2,0,2,0,318.735699600074,3,0.032006699941121,323.792443500017
"375",304,39,1,0.95,2,0,0.11,0,325.765765900025,5.8,0.730353299994022,334.320084100007
"376",304,40,1,0.5,4,0,4,0,335.594876000076,5.1,0.208921200013719,342.927539500059
"377",304,41,1,0.65,2,0,1.19,1,344.723975400091,5.6,0.387897799955681,352.736182000022
"378",304,42,1,0.5,2,0,0.4,1,354.353614300024,2.3,0.0101277000503615,358.697127800086
"379",304,43,1,0.65,2,0,1.79,1,360.692260200041,6,0.131368999951519,368.847784300102
"380",304,44,1,0.95,2,0,0.07,0,370.721602200065,4.8,0.390271399985068,377.936260900111
"381",304,45,1,0.5,3,0,2.68,1,379.5511253,5.2,0.18429909995757,386.96037310001
"382",304,46,1,0.95,3,0,0.07,1,388.781320700073,2.8,0.00264600000809878,393.615997900022
"383",304,47,1,0.65,4,0,3.57,1,395.61865920003,3.3,0.161170499981381,401.10431970004
"384",304,48,1,0.8,3,0,1.1,1,402.948421700043,3.9,0.110763199976645,408.983891300042
"385",304,49,1,0.65,4,0,4,0,410.878377300105,3.3,0.285270299995318,416.487594000064
"386",304,50,1,0.8,2,0,1.48,1,418.207482900005,5.8,0.0402486999519169,426.072275400045
"387",304,51,1,0.95,2,0,0.22,0,428.037189200055,4.1,0.0635482000652701,434.224377400009
"388",304,52,1,0.5,2,0,1.19,1,436.165967200068,3.2,0.553982199984603,441.944190800074
"389",304,53,1,0.5,3,0,3,0,443.395511100069,3.7,0.120702799991705,449.239944100031
"390",304,54,1,0.95,3,0,0.52,1,451.124525899999,4.7,0.23134369996842,458.080537400092
"391",304,55,1,0.95,4,0,0.71,1,459.855116100051,5.5,0.124013599939644,467.503691000049
"392",304,56,1,0.65,3,0,0.89,1,469.3850447,4.6,0.0945404999656603,476.104336600052
"393",304,57,2,0.5,4,0,4,0,478.014936899999,5.8,0.0166099000489339,485.861460500048
"394",304,58,2,0.8,3,0,1.31,1,487.85010920011,4.8,0.421855300082825,495.095907200011
"395",304,59,2,0.65,4,0,3.57,1,496.679541000049,5.7,0.116422699997202,504.520907900063
"396",304,60,2,0.65,2,0,1.19,1,506.409638200072,5.6,0.254547300050035,514.288245500065
"397",304,61,2,0.95,3,0,0.42,1,516.03883970005,4.3,0.508272900013253,522.872156600002
"398",304,62,2,0.95,3,0,0.32,1,524.369061600068,5.4,0.0884120999835432,531.881414600066
"399",304,63,2,0.8,2,0,1.48,1,533.798097500112,4.3,0.565894800005481,540.688286900055
"400",304,64,2,0.5,2,0,2,0,542.127640400082,5.9,0.148463899968192,550.199680800084
"401",304,65,2,0.95,2,0,0.11,0,552.056389000034,4.8,0.815661600092426,559.696594100096
"402",304,66,2,0.95,2,0,0.07,0,560.886351000052,5.4,0.497658099979162,568.808369300095
"403",304,67,2,0.65,4,0,4,0,570.316121400101,2.8,0.00436139991506934,575.15203290002
"404",304,68,2,0.8,4,0,1.18,1,577.152953200042,5.7,0.0104617000324652,584.897865200066
"405",304,69,2,0.8,2,0,0.59,1,586.892625100096,3.1,0.37535760004539,592.392168400111
"406",304,70,2,0.8,4,0,2.36,1,594.022458000109,4.1,0.341652700095437,600.488514500088
"407",304,71,2,0.95,2,0,0.14,1,602.152170400019,3.6,0.832052399986424,608.608264400042
"408",304,72,2,0.5,2,0,2,0,609.781351900077,3.7,0.0391893000341952,615.544141100021
"409",304,73,2,0.65,4,0,4,0,617.510238000075,4.5,0.0778262999374419,624.111978300032
"410",304,74,2,0.5,3,0,3,0,626.039278600016,2.4,0.111997199943289,630.575753700105
"411",304,75,2,0.5,3,0,3,0,632.469105400029,3.8,0.0672389999963343,638.360043500084
"412",304,76,2,0.5,3,0,1.79,1,640.298180400045,2.5,0.00939440005458891,644.838308200007
"413",304,77,2,0.8,2,0,0.2,1,646.834458900033,4.6,0.31751580000855,653.776318200049
"414",304,78,2,0.95,4,0,0.56,1,655.464265300077,2.4,0.0633659000741318,659.95207790006
"415",304,79,2,0.95,4,0,0.71,1,661.893888800056,5.6,0.129413300077431,669.648129400099
"416",304,80,2,0.5,3,0,2.68,1,671.52400230011,5.1,0.19131450005807,678.84100460005
"417",304,81,2,0.95,4,0,0.42,1,680.654907300021,5.3,0.589289700030349,688.568241000059
"418",304,82,2,0.65,4,0,2.38,1,689.983990300098,5.2,0.0802527000196278,697.288877400104
"419",304,83,2,0.65,2,0,2,0,699.2140105,2.5,0.102755400002934,703.840000100085
"420",304,84,2,0.95,3,0,0.21,1,705.742392100045,4,0.0813583000563085,711.848604500061
"421",304,85,2,0.5,2,0,2,0,713.772304400103,5.1,0.360824499977753,721.256593000027
"422",304,86,2,0.65,3,0,2.22,1,722.900859400048,2.4,0.451502999989316,727.776288900059
"423",304,87,2,0.8,3,0,0.44,1,729.329936500057,5.9,0.786549399956129,738.040401200065
"424",304,88,2,0.95,4,0,0.28,1,739.259051900008,4.9,0.1450993999606,746.32875320001
"425",304,89,2,0.8,3,0,0.88,1,748.188871800085,2.7,0.0871908999979496,753.000500000082
"426",304,90,2,0.65,3,0,0.3,1,754.918643300072,4.8,0.209596600034274,761.9525746
"427",304,91,2,0.8,3,0,1.1,1,763.748522100039,4.5,0.104386499966495,770.377572000027
"428",304,92,2,0.65,3,0,1.33,1,772.278430100065,3.5,0.16598479996901,777.968389900052
"429",304,93,2,0.8,4,0,2.96,1,779.807637300109,4.7,1.24432830000296,787.776596000069
"430",304,94,2,0.8,2,0,1.19,1,788.537587300059,2.5,0.14685450005345,793.208476400003
"431",304,95,2,0.65,2,0,2,0,795.066972400062,5.9,0.185980599955656,803.176128100022
"432",304,96,2,0.95,2,0,0.18,0,804.995816300041,4,0.132152499980293,811.152437900077
"433",304,97,2,0.65,4,0,4,0,813.025845400058,2.2,0.109811799949966,817.368366600014
"434",304,98,2,0.95,3,0,0.52,1,819.263751900056,4.2,0.136565999942832,825.624929700047
"435",304,99,2,0.65,3,0,0.89,1,827.49363520008,2.4,0.0896184999728575,832.009022000013
"436",304,100,2,0.5,4,0,0.79,1,833.924662200036,5.4,0.0831461000489071,841.43275700009
"437",304,101,2,0.65,2,0,1.79,1,843.354793900042,4.7,0.12915549997706,850.208558900049
"438",304,102,2,0.5,4,0,2.38,1,852.084620100097,4.6,0.0112709000241011,858.726559100091
"439",304,103,2,0.5,4,0,3.57,1,860.72117740009,3.4,0.19080149999354,866.336649000063
"440",304,104,2,0.8,2,0,0.89,1,868.151385300094,3.7,0.196408899966627,874.072754400084
"441",304,105,2,0.5,2,0,1.79,1,875.881502000033,5.7,0.642636499949731,884.248729500105
"442",304,106,2,0.95,2,0,0.02,1,885.611165400012,2.2,0.229548599920236,890.064495000057
"443",304,107,2,0.8,3,0,0.66,1,891.840790400049,5.5,0.139492899994366,899.504531500046
"444",304,108,2,0.8,4,0,1.77,1,901.370468600071,5.8,0.125488599995151,909.320491500082
"445",304,109,2,0.95,4,0,0.85,1,911.200388700003,2.3,0.139522000099532,915.665226100013
"446",304,110,2,0.5,4,0,4,0,917.530926400097,4.1,0.0103695999132469,923.668980500079
"447",304,111,2,0.65,3,0,1.78,1,925.663990100031,2.4,0.143616699962877,930.232919300091
"448",304,112,2,0.5,2,0,1.19,1,932.094377400004,5.3,0.157833499950357,939.576675500022
"449",304,113,3,0.65,3,0,1.33,1,941.424183900002,2.1,0.0284309999551624,945.576648400049
"450",304,114,3,0.5,2,0,1.19,0,947.553691000096,5.2,NA,NA
"451",304,115,3,0.65,3,0,0.3,1,956.776293500094,2.1,0.522390000056475,961.424915100099
"452",304,116,3,0.8,2,0,0.2,1,962.908131300006,4.8,0.0447203000076115,969.77719240007
"453",304,117,3,0.95,4,0,0.85,1,971.737684700056,2.7,0.138697799993679,976.600790200057
"454",304,118,3,0.8,2,0,0.89,1,978.467360500013,6,0.164888800005428,986.656848500017
"455",304,119,3,0.95,3,0,0.07,1,988.498038200079,5.9,0.0818969999672845,996.504796100082
"456",304,120,3,0.95,2,0,0.07,1,998.428614400094,5.2,0.491895399987698,1006.14466510003
"457",304,121,3,0.95,4,0,0.71,1,1007.65782130009,4.4,0.0706151000922546,1014.15278320003
"458",304,122,3,0.5,3,0,1.79,1,1016.08726970002,3,0.0325135999592021,1021.14454440004
"459",304,123,3,0.5,3,0,0.6,1,1023.11722750007,3.9,0.159169800113887,1029.20079330006
"460",304,124,3,0.8,3,0,0.88,1,1031.04676930001,5.7,0.149582999991253,1038.9204354001
"461",304,125,3,0.65,4,0,4,0,1040.77612400008,4.2,0.728039099951275,1047.72820810007
"462",304,126,3,0.5,4,0,3.57,1,1049.0054433,5.2,0.186558600049466,1056.41694810009
"463",304,127,3,0.5,3,0,3,0,1058.2356134,3.7,0.0810808000387624,1064.0400852001
"464",304,128,3,0.95,2,0,0.11,1,1065.96431250009,3.4,0.756013400037773,1072.14504770003
"465",304,129,3,0.95,3,0,0.52,1,1073.39411040011,5.9,0.234317000024021,1081.55282630003
"466",304,130,3,0.65,2,0,1.19,1,1083.32392330002,6,0.196618000045419,1091.54488280008
"467",304,131,3,0.8,2,0,0.59,1,1093.35361410002,2.6,0.19885130005423,1098.17682170006
"468",304,132,3,0.95,4,0,0.56,1,1099.9831217,5.1,0.165592600009404,1107.27293860004
"469",304,133,3,0.8,4,0,1.77,1,1109.11254090001,2,0.0399056999012828,1113.1770581
"470",304,134,3,0.65,3,0,2.66,1,1115.14239490009,3.8,0.0499904999742284,1121.0167084001
"471",304,135,3,0.8,4,0,1.18,0,1122.97204650007,4.5,NA,NA
"472",304,136,3,0.95,2,0,0.18,1,1131.49412270007,3.3,1.51754539995454,1138.33722260001
"473",304,137,3,0.95,2,0,0.14,1,1138.8248509001,2.9,0.220339599996805,1143.96904620004
"474",304,138,3,0.5,2,0,1.79,1,1145.7538510001,3.4,0.182609900017269,1151.3608427
"475",304,139,3,0.65,3,0,2.22,1,1153.1832784001,3.2,0.881384099950083,1159.28856510005
"476",304,140,3,0.65,3,0,1.78,1,1160.41238750005,4.9,0.0481471000239253,1167.38530390011
"477",304,141,3,0.95,4,0,0.28,1,1169.34262280003,5.3,0.0303169999970123,1176.69688290008
"478",304,142,3,0.8,3,0,0.44,1,1178.67203310004,3.6,1.46486519998871,1185.7613441
"479",304,143,3,0.95,3,0,0.32,1,1186.30163300002,4.1,1.97579820000101,1194.4013731
"480",304,144,3,0.65,2,0,2,1,1194.43188810011,6,0.94486029993277,1203.40032320004
"481",304,145,3,0.65,4,0,4,0,1204.4606934,6,0.0682343000080436,1212.55296980008
"482",304,146,3,0.65,4,0,2.38,1,1214.48998710001,2.7,0.218682799953967,1219.43330370006
"483",304,147,3,0.8,2,0,1.19,1,1221.2200010001,5.9,0.296830800012685,1229.44125550007
"484",304,148,3,0.5,4,0,2.38,1,1231.14965450007,5,1.01066260004882,1239.1852050001
"485",304,149,3,0.65,3,0,0.89,1,1240.17995850008,5.1,0.168982199975289,1247.47333800001
"486",304,150,3,0.95,3,0,0.21,1,1249.30950910004,4.4,0.187255299999379,1255.9210935001
"487",304,151,3,0.65,2,0,2,0,1257.73934930004,5.2,0.0535303000360727,1265.01644450007
"488",304,152,3,0.65,4,0,3.57,1,1266.96828000003,3.4,0.111980300047435,1272.50528510008
"489",304,153,3,0.5,2,0,2,0,1274.39854140009,2.3,0.126348299905658,1278.8487467001
"490",304,154,3,0.5,4,0,4,0,1280.72765320004,5.7,0.0051859999075532,1288.47020850005
"491",304,155,3,0.5,3,0,2.68,1,1290.47017830005,4.7,0.109604199999012,1297.30517130008
"492",304,156,3,0.8,4,0,3.55,1,1299.200725,3.5,0.252187100006267,1304.97687740007
"493",304,157,3,0.8,3,0,0.66,1,1306.7299856001,4.8,0.119259200058877,1313.6731439
"494",304,158,3,0.5,4,0,4,0,1315.5595033,4.8,0.17747049999889,1322.56106980005
"495",304,159,3,0.65,2,0,1.79,1,1324.38960140001,5.2,0.162023999961093,1331.77666880004
"496",304,160,3,0.5,2,0,2,0,1333.6198615001,5.5,0.00957810005638748,1341.16348810005
"497",304,161,3,0.8,3,0,1.1,1,1343.15926630003,4.1,0.117841899977066,1349.40135910001
"498",304,162,3,0.5,3,0,3,0,1351.28873150004,3.2,0.424423800082877,1356.93720350007
"499",304,163,3,0.8,2,0,1.48,1,1358.51788690011,5.3,0.166923800017685,1366.00941890001
"500",304,164,3,0.8,4,0,2.96,1,1367.84783400001,5.3,0.236833199975081,1375.40962140006
"501",304,165,3,0.5,4,0,4,0,1377.17816060001,5.2,0.11863889999222,1384.52064270002
"502",304,166,3,0.95,3,0,0.42,1,1386.40825630003,5.8,0.00852739997208118,1394.24384670006
"503",304,167,3,0.8,4,0,2.36,1,1396.24209910003,4,0.150744099984877,1402.41744910006
"504",304,168,3,0.95,4,0,0.42,1,1404.27239040006,2.4,0.128244600025937,1408.82531380001
"505",305,1,1,0.8,4,0,3.12,1,10.0135994999437,3.8,1.01845690002665,16.91165429994
"506",305,2,1,0.5,4,0,4,0,17.8988490999909,5.6,0.0478455000557005,25.5760842999443
"507",305,3,1,0.5,4,0,1.78,1,27.5338354000123,5.9,0.964164900011383,36.4330621999688
"508",305,4,1,0.5,3,0,1.34,1,37.4742711000144,4,0.65995879995171,44.1606216999935
"509",305,5,1,0.65,2,0,2,0,45.5074945000233,2,0.390237399959005,49.929397800006
"510",305,6,1,0.65,3,0,3,0,51.5452662999742,4.5,0.681936000008136,58.7517134000082
"511",305,7,1,0.8,3,0,3,0,60.0748533000005,4.8,1.06906930007972,67.9679104000097
"512",305,8,1,0.95,2,0,0.3,1,68.903942200006,5.4,1.1019259999739,77.4326259000227
"513",305,9,1,0.5,2,0,1.46,0,78.3359206999885,4.1,0.15362220001407,84.6163346999092
"514",305,10,1,0.8,4,0,4,0,86.4679989999859,5.1,1.26335030002519,94.8558797999285
"515",305,11,1,0.5,4,0,4,1,95.5976191000082,3.1,0.0857835999922827,100.807123899926
"516",305,12,1,0.95,4,0,2.75,1,102.726513399975,2.3,0.964109599939547,108.015566300019
"517",305,13,1,0.95,3,0,1.88,0,109.056506199995,5.4,0.189728799974546,116.67221260001
"518",305,14,1,0.8,3,0,1.34,0,118.487573599909,4.2,0.335775900050066,125.047782299924
"519",305,15,1,0.95,4,0,1.37,0,126.717274299939,4.1,0.982267800020054,133.824015699909
"520",305,16,1,0.8,4,0,0.69,1,134.846799099934,5.1,1.99719170003664,143.969152199919
"521",305,17,1,0.65,2,0,2,0,143.986254399992,4.6,0.125405099941418,150.735742599936
"522",305,18,1,0.95,3,0,2.51,0,152.615507800016,5.1,0.443553799996153,160.183850499918
"523",305,19,1,0.8,2,0,0.87,0,161.745459900005,5.6,1.55794690002222,170.927801199956
"524",305,20,1,0.8,3,0,2.68,0,171.374958499917,4.4,1.28026400005911,179.080137999961
"525",305,21,1,0.5,2,0,2,1,179.804847399937,5.1,1.1995912999846,188.128039199975
"526",305,22,1,0.65,3,0,3,0,188.933499399922,2.7,1.59820659994148,195.255659500021
"527",305,23,1,0.8,2,0,1.74,0,195.662480999948,6,0.480800899909809,204.168428599951
"528",305,24,1,0.65,4,0,4,1,205.692809399916,5.7,0.671324800001457,214.087977299932
"529",305,25,1,0.65,4,0,2.38,0,215.421808999963,2.6,1.34563080000225,221.392030999996
"530",305,26,1,0.65,3,0,3,1,222.051576199941,5.1,1.0325690000318,230.207578399917
"531",305,27,1,0.95,4,0,2.06,0,231.180077699944,2.3,1.50302669999655,237.007926199934
"532",305,28,1,0.8,2,0,1.31,0,237.51000140002,2.3,0.997800499899313,242.832014899934
"533",305,29,1,0.5,3,0,2.68,1,243.83928439999,4.8,1.36067570000887,252.024755500024
"534",305,30,1,0.95,3,0,1.25,0,252.669194399961,6,1.20267259993125,261.897052199929
"535",305,31,1,0.5,4,0,2.67,1,262.699517400004,3,0.868059000000358,268.592600399978
"536",305,32,1,0.8,4,0,2.08,1,269.729718299932,4.8,1.21388950000983,277.76806199993
"537",305,33,1,0.65,3,0,2.68,1,278.559322500019,5.4,0.464436199981719,286.447913600015
"538",305,34,1,0.8,4,0,4,0,287.988804399967,5.3,1.21539439994376,296.528039900004
"539",305,35,1,0.95,2,0,0.24,0,297.317757399986,2.6,1.52923389989883,303.471268899972
"540",305,36,1,0.65,4,0,0.79,1,303.947157499962,2.4,0.772923700045794,309.144402000005
"541",305,37,1,0.8,3,0,2.01,1,310.376542599988,4.4,1.1273080999963,317.927908499958
"542",305,38,1,0.5,2,0,1.94,0,318.805872799945,3,0.537425599992275,324.367899299948
"543",305,39,1,0.95,2,0,0.18,0,325.835562199936,5.8,1.9481963000726,335.607856299961
"544",305,40,1,0.5,4,0,3.56,1,335.664627499995,5.1,0.994960100040771,343.784186800011
"545",305,41,1,0.65,2,0,1.19,1,344.794298099936,5.6,0.709383699926548,353.12781440001
"546",305,42,1,0.5,2,0,0.32,1,354.42348160001,2.3,0.620403000037186,359.367965799989
"547",305,43,1,0.65,2,0,1.79,1,360.752682499937,6,0.414842700003646,369.191746699973
"548",305,44,1,0.95,2,0,0.12,0,370.782008299953,4.8,0.577833699993789,378.18412729993
"549",305,45,1,0.5,3,0,2.01,1,379.611458599917,5.2,0.492028699954972,387.328283099923
"550",305,46,1,0.95,3,0,0.42,0,388.841205899953,2.8,0.95076949999202,394.616061199922
"551",305,47,1,0.65,4,0,3.57,1,395.670408300008,3.3,0.445583299966529,401.440449599992
"552",305,48,1,0.8,3,0,3,0,403.000513699953,3.9,0.171437000040896,409.095579999965
"553",305,49,1,0.65,4,0,4,1,410.929368200013,3.3,0.49042929999996,416.743660499924
"554",305,50,1,0.8,2,0,2,0,418.25827380002,5.8,0.373444300028495,426.455675199977
"555",305,51,1,0.95,2,0,0.36,0,428.087316700025,4.1,0.700154100079089,434.912724599941
"556",305,52,1,0.5,2,0,0.97,1,436.217628799961,3.2,0.333757200045511,441.775927599985
"557",305,53,1,0.5,3,0,3,1,443.447767199948,3.7,0.380110500031151,449.551843900001
"558",305,54,1,0.95,3,0,3,0,451.176839599968,4.7,0.603744499967434,458.504239199916
"559",305,55,1,0.95,4,0,3.44,0,459.90567769995,5.5,0.361984899966046,467.791611299966
"560",305,56,1,0.65,3,0,1.79,1,469.434754899936,4.6,0.660855100024492,476.720411699964
"561",305,57,2,0.5,4,0,4,1,478.064626600011,5.8,0.111035699956119,486.000106599997
"562",305,58,2,0.8,3,0,3,0,487.894267099909,4.8,0.793689499958418,495.512196799973
"563",305,59,2,0.65,4,0,3.57,1,496.723761799978,5.7,1.38365730002988,505.832583399955
"564",305,60,2,0.65,2,0,1.19,1,506.454015499912,5.6,0.265877299942076,514.343787699938
"565",305,61,2,0.95,3,0,2.51,0,516.082981999964,4.3,1.0324149999069,523.440494799986
"566",305,62,2,0.95,3,0,1.88,0,524.413520499947,5.4,0.586630500038154,532.424351599999
"567",305,63,2,0.8,2,0,2,0,533.84269119997,4.3,0.417627299902961,540.583837599959
"568",305,64,2,0.5,2,0,2,0,542.171280400013,5.9,0.481141199939884,550.576174599933
"569",305,65,2,0.95,2,0,0.18,1,552.100089699961,4.8,1.49961990001611,560.424430300016
"570",305,66,2,0.95,2,0,0.12,1,560.929902200005,5.4,0.966840399894863,569.320706699975
"571",305,67,2,0.65,4,0,4,0,570.358943299972,2.8,0.00145470001734793,575.195569499978
"572",305,68,2,0.8,4,0,2.08,1,577.199234899948,5.7,0.47670759994071,585.400461099925
"573",305,69,2,0.8,2,0,0.87,1,586.928835899918,3.1,0.0915390000445768,592.144539600005
"574",305,70,2,0.8,4,0,4,0,594.058256399934,4.1,0.41728689998854,600.599705799948
"575",305,71,2,0.95,2,0,0.24,1,602.187492399942,3.6,1.04405110003427,608.85604549991
"576",305,72,2,0.5,2,0,1.94,0,609.817062399932,3.7,0.97858500003349,616.520693199942
"577",305,73,2,0.65,4,0,4,0,617.547508499934,4.5,0.776845099986531,624.847833700012
"578",305,74,2,0.5,3,0,3,1,626.076051199925,2.4,0.132224200060591,630.632259799982
"579",305,75,2,0.5,3,0,2.68,1,632.505143999937,3.8,0.0146707000676543,638.351304100011
"580",305,76,2,0.5,3,0,1.34,1,640.341887500021,2.5,0.126165300025605,644.992490199977
"581",305,77,2,0.8,2,0,0.29,1,646.871569499956,4.6,1.11270619998686,654.608574199956
"582",305,78,2,0.95,4,0,2.75,0,655.500955699943,2.4,0.730965900002047,660.656588800019
"583",305,79,2,0.95,4,0,3.44,0,661.930774700013,5.6,0.0132193999597803,669.574120600009
"584",305,80,2,0.5,3,0,2.01,1,671.566054499941,5.1,0.413959600031376,679.104333399911
"585",305,81,2,0.95,4,0,2.06,0,680.695445399964,5.3,0.644847700023092,688.664480899926
"586",305,82,2,0.65,4,0,2.38,1,690.024769200012,5.2,0.695384599966928,697.944836899987
"587",305,83,2,0.65,2,0,2,0,699.254562499933,2.5,0.142057299963199,703.919959099963
"588",305,84,2,0.95,3,0,1.25,0,705.783300400013,4,0.336661500041373,712.144738800009
"589",305,85,2,0.5,2,0,2,1,713.813116399921,5.1,0.183669300051406,721.120351899997
"590",305,86,2,0.65,3,0,3,0,722.942450699979,2.4,0.394108499982394,727.760259200004
"591",305,87,2,0.8,3,0,1.34,0,729.371226800024,5.9,0.888872200041078,738.184338100022
"592",305,88,2,0.95,4,0,1.37,1,739.300571599975,4.9,0.135859100031666,746.360668199952
"593",305,89,2,0.8,3,0,2.68,1,748.22984819999,2.7,0.782538800034672,753.737011899939
"594",305,90,2,0.65,3,0,0.6,1,754.959658699925,4.8,0.0728226999053732,761.856776200002
"595",305,91,2,0.8,3,0,3,0,763.789054399938,4.5,0.807152300025336,771.120158499922
"596",305,92,2,0.65,3,0,2.68,1,772.318105599959,3.5,0.102194899925962,777.944810300018
"597",305,93,2,0.8,4,0,4,0,779.847698799917,4.7,0.812599799945019,787.383829899947
"598",305,94,2,0.8,2,0,1.74,0,788.57648249995,2.5,0.698983200010844,793.800798599957
"599",305,95,2,0.65,2,0,2,0,795.106951399939,5.9,0.513735400047153,803.544349299977
"600",305,96,2,0.95,2,0,0.3,0,805.035702200024,4,0.140526200062595,811.200591399916
"601",305,97,2,0.65,4,0,4,1,813.065230399952,2.2,0.343722800025716,817.632451299927
"602",305,98,2,0.95,3,0,3,0,819.293840899947,4.2,0.0428961999714375,825.560428899946
"603",305,99,2,0.65,3,0,1.79,0,827.522599400021,2.4,1.46949179994408,833.416942199925
"604",305,100,2,0.5,4,0,0.59,1,833.952554699965,5.4,0.535401800065301,841.91247380001
"605",305,101,2,0.65,2,0,1.79,1,843.382135499967,4.7,1.0217849999899,851.128600899945
"606",305,102,2,0.5,4,0,1.78,1,852.11202599993,4.6,0.543704099953175,859.280545599991
"607",305,103,2,0.5,4,0,2.67,1,860.741970199975,3.4,0.466114699956961,866.632879399927
"608",305,104,2,0.8,2,0,1.31,0,868.171827999991,3.7,0.82435470004566,874.720418600016
"609",305,105,2,0.5,2,0,1.46,1,875.901159600005,5.7,0.023126499960199,883.648349699914
"610",305,106,2,0.95,2,0,0.04,1,885.630511599942,2.2,0.00253439997322857,889.873176299967
"611",305,107,2,0.8,3,0,2.01,0,891.875751400017,5.5,0.968268300057389,900.368326899945
"612",305,108,2,0.8,4,0,3.12,0,901.405052299961,5.8,0.907441699993797,910.136825099937
"613",305,109,2,0.95,4,0,4,0,911.234430299955,2.3,0.586630199919455,916.144472199958
"614",305,110,2,0.5,4,0,3.56,1,917.563020000001,4.1,0.176375100039877,923.864913699916
"615",305,111,2,0.65,3,0,3,0,925.693615199998,2.4,0.115264700027183,930.232263399987
"616",305,112,2,0.5,2,0,0.97,1,932.122068299912,5.3,0.721825400018133,940.168625999941
"617",305,113,3,0.65,3,0,2.68,0,941.451870099991,2.1,0.168522199965082,945.744871199946
"618",305,114,3,0.5,2,0,0.97,1,947.581544299959,5.2,0.474659100058489,955.280680599972
"619",305,115,3,0.65,3,0,0.6,1,956.811098399921,2.1,0.0734972999198362,961.008676499943
"620",305,116,3,0.8,2,0,0.29,1,962.940251099993,4.8,0.10029420000501,969.864808399929
"621",305,117,3,0.95,4,0,4,0,971.769560899935,2.7,0.555112699978054,977.048161600018
"622",305,118,3,0.8,2,0,1.31,1,978.498124099919,6,0.190363899921067,986.713075799984
"623",305,119,3,0.95,3,0,0.42,1,988.527856600005,5.9,0.172969199949875,996.624758300022
"624",305,120,3,0.95,2,0,0.12,1,998.456835199962,5.2,0.327807800029404,1006.0090509
"625",305,121,3,0.95,4,0,3.44,1,1007.68637140002,4.4,0.0260902000591159,1014.13647719997
"626",305,122,3,0.5,3,0,1.34,1,1016.11556169996,3,0.180817899992689,1021.32052389998
"627",305,123,3,0.5,3,0,0.45,1,1023.14488709997,3.9,0.459537899936549,1029.52880759991
"628",305,124,3,0.8,3,0,2.68,0,1031.07439269999,5.7,0.697996500064619,1039.49716819997
"629",305,125,3,0.65,4,0,4,0,1040.80427339999,4.2,0.420371299958788,1047.4486
"630",305,126,3,0.5,4,0,2.67,1,1049.03321299993,5.2,0.53525630000513,1056.79333869996
"631",305,127,3,0.5,3,0,2.68,1,1058.26327240001,3.7,0.157133499975316,1064.14508249995
"632",305,128,3,0.95,2,0,0.18,1,1065.99303449993,3.4,0.207424100022763,1071.62468459993
"633",305,129,3,0.95,3,0,3,0,1073.42232739995,5.9,0.190168800065294,1081.5363414
"634",305,130,3,0.65,2,0,1.19,1,1083.35110610002,6,0.560994299943559,1091.93665689998
"635",305,131,3,0.8,2,0,0.87,1,1093.3807791,2.6,0.0678935999749228,1098.07345829997
"636",305,132,3,0.95,4,0,2.75,1,1100.01065740001,5.1,1.01810650003608,1108.15315089992
"637",305,133,3,0.8,4,0,3.12,0,1109.1400905,2,0.0845586999785155,1113.24906940002
"638",305,134,3,0.65,3,0,3,1,1115.16952489992,3.8,0.463715699966997,1121.4566568
"639",305,135,3,0.8,4,0,2.08,1,1122.99808129994,4.5,0.638235299964435,1130.16097249999
"640",305,136,3,0.95,2,0,0.3,0,1131.52845300001,3.3,0.692414999939501,1137.54483129992
"641",305,137,3,0.95,2,0,0.24,1,1138.85746019997,2.9,0.427160999970511,1144.20863219991
"642",305,138,3,0.5,2,0,1.46,1,1145.78661189997,3.4,1.25420359999407,1152.46523919993
"643",305,139,3,0.65,3,0,3,0,1153.21630229999,3.2,0.311952499905601,1158.75266419991
"644",305,140,3,0.65,3,0,3,1,1160.44581129996,4.9,1.10358710004948,1168.47288449993
"645",305,141,3,0.95,4,0,1.37,1,1169.37447929999,5.3,0.717326599988155,1177.41678899992
"646",305,142,3,0.8,3,0,1.34,1,1178.70452419994,3.6,0.0965924999909475,1184.42498809996
"647",305,143,3,0.95,3,0,1.88,1,1186.33357729996,4.1,0.191294300020672,1192.64923159999
"648",305,144,3,0.65,2,0,2,1,1194.46302579995,6,0.258276600041427,1202.74468789995
"649",305,145,3,0.65,4,0,4,0,1204.49147629994,6,0.261711600003764,1212.77689619991
"650",305,146,3,0.65,4,0,2.38,1,1214.52025119995,2.7,0.228436599951237,1219.47360959998
"651",305,147,3,0.8,2,0,1.74,0,1221.25040739996,5.9,0.138145199976861,1229.31304589997
"652",305,148,3,0.5,4,0,1.78,1,1231.17995030002,5,0.557280999957584,1238.76141119993
"653",305,149,3,0.65,3,0,1.79,1,1240.20920599997,5.1,0.603622799972072,1247.93745730002
"654",305,150,3,0.95,3,0,1.25,0,1249.33891229995,4.4,0.141501700039953,1255.90526439995
"655",305,151,3,0.65,2,0,2,0,1257.76893149992,5.2,0.128267200081609,1265.12063219992
"656",305,152,3,0.65,4,0,3.57,0,1266.99745729996,3.4,0.818449300015345,1273.24109009991
"657",305,153,3,0.5,2,0,2,1,1274.42772419995,2.3,0.48924739996437,1279.24063289992
"658",305,154,3,0.5,4,0,4,1,1280.75645959994,5.7,0.47280570003204,1288.95308090001
"659",305,155,3,0.5,3,0,2.01,1,1290.48544119997,4.7,0.447414799942635,1297.65708659997
"660",305,156,3,0.8,4,0,4,0,1299.21474199998,3.5,0.478566200006753,1305.21695829998
"661",305,157,3,0.8,3,0,2.01,0,1306.74350510002,4.8,0.912974699982442,1314.48167999997
"662",305,158,3,0.5,4,0,3.56,1,1315.57375420001,4.8,0.491181800025515,1322.88960270002
"663",305,159,3,0.65,2,0,1.79,0,1324.40346089995,5.2,0.509377699927427,1332.13730539999
"664",305,160,3,0.5,2,0,1.94,1,1333.63299349998,5.5,0.452140599954873,1341.60934610001
"665",305,161,3,0.8,3,0,3,0,1343.16236369999,4.1,0.106975000002421,1349.39289099991
"666",305,162,3,0.5,3,0,3,1,1351.29099639994,3.2,0.0145321000600234,1356.53352509998
"667",305,163,3,0.8,2,0,2,0,1358.52411190001,5.3,0.584806099999696,1366.43290769996
"668",305,164,3,0.8,4,0,4,0,1367.85319339996,5.3,0.0719132999656722,1375.24890170002
"669",305,165,3,0.5,4,0,4,1,1377.18201059999,5.2,0.804145599948242,1385.20892289991
"670",305,166,3,0.95,3,0,2.51,0,1386.40981949994,5.8,0.039132000063546,1394.27360939991
"671",305,167,3,0.8,4,0,4,0,1396.23956799996,4,0.473334099981003,1402.73713769997
"672",305,168,3,0.95,4,0,2.06,0,1404.26908759994,2.4,0.682981600053608,1409.37712959992
"673",306,1,1,0.8,4,0,3.57,0,10.0143957999535,3.8,1.48678069992457,17.3277483999263
"674",306,2,1,0.5,4,0,4,0,17.8463525999105,5.6,0.544216400012374,26.0153223999077
"675",306,3,1,0.5,4,0,2.38,1,27.4763524999144,5.9,0.12623060005717,35.5281571999658
"676",306,4,1,0.5,3,0,1.79,1,37.4074888000032,4,0.0310186999849975,43.4637812000001
"677",306,5,1,0.65,2,0,1.94,0,45.4383742999053,2,0.598690200014971,50.0651091999607
"678",306,6,1,0.65,3,0,3,0,51.4725636999356,4.5,0.0190410000504926,58.0202783999266
"679",306,7,1,0.8,3,0,3,0,60.0064834998921,4.8,0.0967726000817493,66.9269373998977
"680",306,8,1,0.95,2,0,0.3,0,68.8352872999385,5.4,NA,NA
"681",306,9,1,0.5,2,0,1.79,1,78.2585525999311,4.1,0.455022600013763,84.8399224999594
"682",306,10,1,0.8,4,0,4,0,86.3899756999454,5.1,0.0773496000329033,93.5913377999095
"683",306,11,1,0.5,4,0,4,0,95.5191293999087,3.1,0.0684746999759227,100.711296899943
"684",306,12,1,0.95,4,0,4,0,102.647988499957,2.3,0.21988909994252,107.191201599897
"685",306,13,1,0.95,3,0,1.33,1,108.976524599944,5.4,0.0460706000449136,116.447681599995
"686",306,14,1,0.8,3,0,1.76,1,118.406799399992,4.2,0.0727244999725372,124.703819399932
"687",306,15,1,0.95,4,0,2.08,1,126.636275799945,4.1,0.174765900010243,132.935514399898
"688",306,16,1,0.8,4,0,0.79,1,134.765934699913,5.1,0.141407300019637,142.031907800003
"689",306,17,1,0.65,2,0,2,0,143.895429399912,4.6,0.088259799988009,150.60782039992
"690",306,18,1,0.95,3,0,1.78,1,152.524754799902,5.1,0.846231599920429,160.495886599994
"691",306,19,1,0.8,2,0,0.95,1,161.654770999914,5.6,0.705319999950007,169.984443199937
"692",306,20,1,0.8,3,0,3,0,171.284194499953,4.4,0.283745200023986,177.991124099935
"693",306,21,1,0.5,2,0,2,0,179.712365599931,5.1,0.691399000003003,187.527201599907
"694",306,22,1,0.65,3,0,3,0,188.840882799937,2.7,0.138733000028878,193.703521799995
"695",306,23,1,0.8,2,0,1.9,1,195.56995559996,6,0.669180299970321,204.26337619999
"696",306,24,1,0.65,4,0,4,0,205.599554699962,5.7,0.0200512999435887,213.343725899933
"697",306,25,1,0.65,4,0,2.38,1,215.328865999938,2.6,0.62269940006081,220.57610289997
"698",306,26,1,0.65,3,0,3,0,221.959105299902,5.1,0.348719300003722,229.431604099926
"699",306,27,1,0.95,4,0,3.12,0,231.088300099946,2.3,0.0193459000438452,235.431598800002
"700",306,28,1,0.8,2,0,1.42,0,237.417403099942,2.3,1.25079670001287,242.991907799966
"701",306,29,1,0.5,3,0,3,0,243.746145299985,4.8,0.0940746000269428,250.66376679996
"702",306,30,1,0.95,3,0,0.89,0,252.574881599983,6,0.528758400003426,261.128061399912
"703",306,31,1,0.5,4,0,3.57,0,262.604380999925,3,0.29104180005379,267.92015209992
"704",306,32,1,0.8,4,0,2.38,1,269.634164599935,4.8,0.149278900003992,276.607813799987
"705",306,33,1,0.65,3,0,2.68,0,278.463624199969,5.4,0.24837170005776,286.136017199955
"706",306,34,1,0.8,4,0,4,0,287.892742699943,5.3,0.0550125999143347,295.27151459991
"707",306,35,1,0.95,2,0,0.24,1,297.221581299906,2.6,0.746293000061996,302.591879399959
"708",306,36,1,0.65,4,0,0.79,1,303.850694299908,2.4,0.196893299929798,308.471959199989
"709",306,37,1,0.8,3,0,2.65,0,310.280200799927,4.4,0.103508300031535,316.80803039996
"710",306,38,1,0.5,2,0,2,0,318.709701399901,3,0.17870460008271,323.912261699908
"711",306,39,1,0.95,2,0,0.18,0,325.73872049991,5.8,0.605037899920717,334.167926799972
"712",306,40,1,0.5,4,0,4,0,335.568004600005,5.1,0.235942999948747,342.927541599958
"713",306,41,1,0.65,2,0,0.97,1,344.696822699974,5.6,0.302734699915163,352.623977199895
"714",306,42,1,0.5,2,0,0.4,1,354.326286999974,2.3,0.0854473999934271,358.735899199964
"715",306,43,1,0.65,2,0,1.46,1,360.655579299899,6,0.00823569996282458,368.698699099943
"716",306,44,1,0.95,2,0,0.12,0,370.695832800004,4.8,0.672472100006416,378.192175199976
"717",306,45,1,0.5,3,0,2.68,1,379.524767499999,5.2,0.171006400021724,386.920473699924
"718",306,46,1,0.95,3,0,0.3,1,388.754737499985,2.8,0.733165899990126,394.311751799891
"719",306,47,1,0.65,4,0,3.57,1,395.583742699935,3.3,0.44335770001635,401.351949199918
"720",306,48,1,0.8,3,0,3,0,402.91373749997,3.9,0.0102847999660298,408.853266299935
"721",306,49,1,0.65,4,0,4,0,410.848229099996,3.3,0.187395500019193,416.359866499901
"722",306,50,1,0.8,2,0,2,0,418.177604599972,5.8,0.110776400077157,426.112280500005
"723",306,51,1,0.95,2,0,0.36,1,428.006637599901,4.1,0.268910799990408,434.399792099954
"724",306,52,1,0.5,2,0,1.19,1,436.135962700006,3.2,0.0558415000559762,441.416175999912
"725",306,53,1,0.5,3,0,3,0,443.365450499929,3.7,0.590692199999467,449.679924399941
"726",306,54,1,0.95,3,0,2.22,0,451.094409299898,4.7,0.317282799980603,458.135740599944
"727",306,55,1,0.95,4,0,4,0,459.823684499948,5.5,0.0281568000791594,467.375370799913
"728",306,56,1,0.65,3,0,1.79,1,469.352498799912,4.6,0.374898800044321,476.352326799999
"729",306,57,2,0.5,4,0,4,0,477.982532899943,5.8,0.0490142999915406,485.855766499997
"730",306,58,2,0.8,3,0,3,0,487.811886399984,4.8,0.284096500021406,494.919780700002
"731",306,59,2,0.65,4,0,3.57,1,496.640751899919,5.7,0.00256090005859733,504.373353299918
"732",306,60,2,0.65,2,0,0.97,1,506.375990599976,5.6,0.128072699997574,514.128063399927
"733",306,61,2,0.95,3,0,1.78,0,516.00506669993,4.3,0.526706399978139,522.856352099916
"734",306,62,2,0.95,3,0,1.33,1,524.334714299999,5.4,0.56139789998997,532.320073199924
"735",306,63,2,0.8,2,0,2,0,533.763859899947,4.3,0.0885767000727355,540.175951999961
"736",306,64,2,0.5,2,0,2,0,542.092536399956,5.9,0.143632099963725,550.159920499893
"737",306,65,2,0.95,2,0,0.18,0,552.021340099978,4.8,1.51463640003931,560.360153299989
"738",306,66,2,0.95,2,0,0.12,0,560.850485399948,5.4,0.277273899991997,568.551974299946
"739",306,67,2,0.65,4,0,4,0,570.279921399895,2.8,0.176276899990626,575.279876399902
"740",306,68,2,0.8,4,0,2.38,1,577.108767899917,5.7,0.687665899982676,585.521170299966
"741",306,69,2,0.8,2,0,0.95,0,586.83878199989,3.1,1.43699889990967,593.400913599995
"742",306,70,2,0.8,4,0,4,0,593.969011299894,4.1,0.138997500063851,600.232081099995
"743",306,71,2,0.95,2,0,0.24,0,602.098309899913,3.6,1.72526920004748,609.448214199976
"744",306,72,2,0.5,2,0,2,0,609.727988199913,3.7,0.0445311000803486,615.495860099909
"745",306,73,2,0.65,4,0,4,0,617.456535599893,4.5,0.171700299950317,624.152053999947
"746",306,74,2,0.5,3,0,3,0,625.98549579992,2.4,0.19876459997613,630.608037999948
"747",306,75,2,0.5,3,0,3,0,632.414375399938,3.8,0.0111771000083536,638.250207099947
"748",306,76,2,0.5,3,0,1.79,1,640.244104999932,2.5,0.104217500076629,644.872763299965
"749",306,77,2,0.8,2,0,0.32,1,646.773806499899,4.6,0.0179973000194877,653.416650299914
"750",306,78,2,0.95,4,0,4,0,655.403713599895,2.4,0.0604564999230206,659.887735900003
"751",306,79,2,0.95,4,0,4,0,661.832412699936,5.6,0.0167183999437839,669.472306699958
"752",306,80,2,0.5,3,0,2.68,1,671.460677800002,5.1,0.046314200037159,678.63248619996
"753",306,81,2,0.95,4,0,3.12,0,680.59148069995,5.3,0.404770600027405,688.320253899903
"754",306,82,2,0.65,4,0,2.38,1,689.920520199928,5.2,0.479301000013947,697.623935299926
"755",306,83,2,0.65,2,0,2,0,699.149917699979,2.5,0.526719500077888,704.200299599906
"756",306,84,2,0.95,3,0,0.89,1,705.678719599964,4,0.553277699975297,712.256486999919
"757",306,85,2,0.5,2,0,2,0,713.708176099928,5.1,0.175883400021121,721.0078584
"758",306,86,2,0.65,3,0,3,0,722.837600499974,2.4,0.0667305999668315,727.327831999981
"759",306,87,2,0.8,3,0,1.76,1,729.266402699985,5.9,1.32967370003462,738.520461399923
"760",306,88,2,0.95,4,0,2.08,1,739.195892999996,4.9,0.512789199943654,746.633177099982
"761",306,89,2,0.8,3,0,3,0,748.12543159991,2.7,0.142754699918441,752.991927900002
"762",306,90,2,0.65,3,0,0.6,1,754.854257599916,4.8,1.04163180000614,762.720625399961
"763",306,91,2,0.8,3,0,3,0,763.68422039994,4.5,0.183788599912077,770.392351599992
"764",306,92,2,0.65,3,0,2.68,1,772.213786599925,3.5,0.181889100000262,777.920484999893
"765",306,93,2,0.8,4,0,4,0,779.743685699999,4.7,0.139815900009125,786.608184199897
"766",306,94,2,0.8,2,0,1.9,0,788.473519699997,2.5,1.00246300001163,794.000271899975
"767",306,95,2,0.65,2,0,1.94,0,795.003183799912,5.9,0.920977500034496,803.848627500003
"768",306,96,2,0.95,2,0,0.3,0,804.932668399997,4,0.355871799984016,811.312416599947
"769",306,97,2,0.65,4,0,4,0,812.9616561,2.2,0.0304925000527874,817.216148899985
"770",306,98,2,0.95,3,0,2.22,0,819.190826099948,4.2,0.337412199936807,825.752611899981
"771",306,99,2,0.65,3,0,1.79,1,827.420371299959,2.4,1.34015910001472,833.184925899957
"772",306,100,2,0.5,4,0,0.79,1,833.84992269997,5.4,0.622438100050204,841.896669299924
"773",306,101,2,0.65,2,0,1.46,1,843.279318599962,4.7,1.36489979992621,851.368866199977
"774",306,102,2,0.5,4,0,2.38,1,852.009069999913,4.6,0.055051299976185,858.6891053
"775",306,103,2,0.5,4,0,3.57,1,860.639237599913,3.4,0.00957170000765473,866.078607299947
"776",306,104,2,0.8,2,0,1.42,0,868.07423639996,3.7,0.0585768999299034,873.85680259997
"777",306,105,2,0.5,2,0,1.79,1,875.803344099899,5.7,0.105128499912098,883.632725799922
"778",306,106,2,0.95,2,0,0.04,0,885.532881799969,2.2,0.099641100037843,889.856150799897
"779",306,107,2,0.8,3,0,2.65,0,891.761579999933,5.5,0.18646080000326,899.473086299957
"780",306,108,2,0.8,4,0,3.57,1,901.291969199898,5.8,0.148606000002474,909.26471119991
"781",306,109,2,0.95,4,0,4,0,911.121173599968,2.3,0.363326200051233,915.80855639989
"782",306,110,2,0.5,4,0,4,0,917.45031669992,4.1,0.162444500019774,923.737503699958
"783",306,111,2,0.65,3,0,3,0,925.580255099921,2.4,0.171542500029318,930.176377699943
"784",306,112,2,0.5,2,0,1.19,1,932.010028599994,5.3,0.834551799925976,940.169034699909
"785",306,113,3,0.65,3,0,2.68,0,941.339453399996,2.1,NA,NA
"786",306,114,3,0.5,2,0,1.19,1,947.46129649994,5.2,0.0495010999729857,954.736610399908
"787",306,115,3,0.65,3,0,0.6,1,956.692630699952,2.1,0.831849299953319,961.649358199909
"788",306,116,3,0.8,2,0,0.32,1,962.822541499976,4.8,1.29073299991433,970.936967999907
"789",306,117,3,0.95,4,0,4,0,971.651279599988,2.7,0.185288100037724,976.560337399947
"790",306,118,3,0.8,2,0,1.42,1,978.380211399985,6,0.851997799938545,987.256531499908
"791",306,119,3,0.95,3,0,0.3,1,988.409616099903,5.9,0.011117700021714,996.354997699964
"792",306,120,3,0.95,2,0,0.12,0,998.349106599926,5.2,0.0513103000121191,1005.62423919991
"793",306,121,3,0.95,4,0,4,0,1007.57839739998,4.4,0.102133100037463,1014.10437869991
"794",306,122,3,0.5,3,0,1.79,1,1016.0079517999,3,0.352452600025572,1021.38480359991
"795",306,123,3,0.5,3,0,0.6,1,1023.0374882,3.9,0.319187799934298,1029.28088959993
"796",306,124,3,0.8,3,0,3,0,1030.96684739995,5.7,0.598027299973182,1039.28836359992
"797",306,125,3,0.65,4,0,4,0,1040.69539419992,4.2,0.105208900058642,1047.02438909991
"798",306,126,3,0.5,4,0,3.57,1,1048.92416469997,5.2,0.251832299982198,1056.40091339999
"799",306,127,3,0.5,3,0,3,0,1058.15436239995,3.7,0.995044799987227,1064.8726758
"800",306,128,3,0.95,2,0,0.18,0,1065.88284829992,3.4,0.349399400060065,1071.65669249999
"801",306,129,3,0.95,3,0,2.22,0,1073.31238239992,5.9,0.156260899966583,1081.39235149999
"802",306,130,3,0.65,2,0,0.97,1,1083.2411349999,6,0.559339700033888,1091.82506209996
"803",306,131,3,0.8,2,0,0.95,0,1093.27084559994,2.6,0.233869799994864,1098.12927219993
"804",306,132,3,0.95,4,0,4,0,1099.90076649992,5.1,0.175984999979846,1107.2003877
"805",306,133,3,0.8,4,0,3.57,0,1109.02957239992,2,0.610785499913618,1113.66478439991
"806",306,134,3,0.65,3,0,3,0,1115.05896499997,3.8,0.101930400007404,1120.98470479995
"807",306,135,3,0.8,4,0,2.38,1,1122.88783239992,4.5,0.996458100038581,1130.40866049996
"808",306,136,3,0.95,2,0,0.3,0,1131.41726249992,3.3,0.0916057999711484,1136.83264319994
"809",306,137,3,0.95,2,0,0.24,0,1138.74621749995,2.9,0.130673800013028,1143.80059389991
"810",306,138,3,0.5,2,0,1.79,1,1145.67500759999,3.4,0.0134774000616744,1151.11991329992
"811",306,139,3,0.65,3,0,3,0,1153.11165169999,3.2,0.249220199999399,1158.58455639996
"812",306,140,3,0.65,3,0,3,0,1160.34089499991,4.9,0.967170699965209,1168.23240979994
"813",306,141,3,0.95,4,0,2.08,1,1169.27035979996,5.3,0.150026999996044,1176.74473609996
"814",306,142,3,0.8,3,0,1.76,1,1178.59975529998,3.6,0.312937199953012,1184.53725719999
"815",306,143,3,0.95,3,0,1.33,0,1186.22944669996,4.1,0.135942900087684,1192.48913069989
"816",306,144,3,0.65,2,0,1.94,1,1194.35827149998,6,0.266304499935359,1202.64908289991
"817",306,145,3,0.65,4,0,4,0,1204.388102,6,0.0531481999205425,1212.46459029999
"818",306,146,3,0.65,4,0,2.38,1,1214.41661269998,2.7,0.13202130002901,1219.2734225
"819",306,147,3,0.8,2,0,1.9,0,1221.1464515999,5.9,0.154906900017522,1229.2256314999
"820",306,148,3,0.5,4,0,2.38,1,1231.07585139992,5,0.236449600080959,1238.33688659989
"821",306,149,3,0.65,3,0,1.79,1,1240.10562439996,5.1,0.411960599943995,1247.64166919992
"822",306,150,3,0.95,3,0,0.89,0,1249.23477859993,4.4,0.342306899954565,1256.00115659996
"823",306,151,3,0.65,2,0,2,0,1257.66389059997,5.2,0.0891460999846458,1264.9767767
"824",306,152,3,0.65,4,0,3.57,1,1266.89274479996,3.4,0.595778499962762,1272.91326439998
"825",306,153,3,0.5,2,0,2,0,1274.32253239991,2.3,0.194337900029495,1278.84076429997
"826",306,154,3,0.5,4,0,4,0,1280.65152349998,5.7,0.153275600052439,1288.52845759992
"827",306,155,3,0.5,3,0,2.68,1,1290.3803683999,4.7,0.288232600083575,1297.39341759996
"828",306,156,3,0.8,4,0,4,0,1299.11025299993,3.5,0.221764200017788,1304.85661509994
"829",306,157,3,0.8,3,0,2.65,0,1306.64001849992,4.8,0.312409300007857,1313.77712719992
"830",306,158,3,0.5,4,0,4,0,1315.4697593,4.8,0.106686600018293,1322.40085759992
"831",306,159,3,0.65,2,0,1.46,1,1324.29934209993,5.2,0.173746999935247,1331.6974544999
"832",306,160,3,0.5,2,0,2,0,1333.52911389992,5.5,0.140391399967484,1341.19282379991
"833",306,161,3,0.8,3,0,3,0,1343.05755819997,4.1,0.179567000013776,1349.36115369992
"834",306,162,3,0.5,3,0,3,0,1351.18671599997,3.2,0.030192399979569,1356.44135959994
"835",306,163,3,0.8,2,0,2,0,1358.41635049996,5.3,0.20494470000267,1365.94488239998
"836",306,164,3,0.8,4,0,4,0,1367.744955,5.3,0.484143799985759,1375.55295679998
"837",306,165,3,0.5,4,0,4,0,1377.07393369998,5.2,0.342921599978581,1384.64066539996
"838",306,166,3,0.95,3,0,1.78,0,1386.30291159998,5.8,0.418801799998619,1394.54526249995
"839",306,167,3,0.8,4,0,4,0,1396.13152339996,4,0.141590000013821,1402.29652159999
"840",306,168,3,0.95,4,0,3.12,0,1404.16010029998,2.4,0.017176799941808,1408.60722609994
"841",307,1,1,0.8,4,0,2.29,1,10.0140209000092,3.8,0.609853300033137,16.5025838000001
"842",307,2,1,0.5,4,0,4,0,17.8982276000315,5.6,0.503989299992099,26.0316265000729
"843",307,3,1,0.5,4,0,2.35,1,27.5330373001052,5.9,0.444002000032924,35.9126206000801
"844",307,4,1,0.5,3,0,1.34,1,37.4746243000263,4,0.371196300024167,43.872260000091
"845",307,5,1,0.65,2,0,1.19,0,45.5071705000009,2,NA,NA
"846",307,6,1,0.65,3,0,2.93,0,51.5401582000777,4.5,1.18715549993794,59.2573847000021
"847",307,7,1,0.8,3,0,3,0,60.0760009000078,4.8,0.483058799989522,67.3837634000229
"848",307,8,1,0.95,2,0,0.59,1,68.9057770000072,5.4,0.48597289994359,76.8170050000772
"849",307,9,1,0.5,2,0,1.34,1,78.3361070000101,4.1,0.38687539997045,84.8478446000954
"850",307,10,1,0.8,4,0,3.81,0,86.4660799000412,5.1,0.777150599984452,94.36754570005
"851",307,11,1,0.5,4,0,4,0,95.5954936000053,3.1,0.535987199982628,101.25578300003
"852",307,12,1,0.95,4,0,2.36,1,102.724980800063,2.3,0.709892399958335,107.75953660009
"853",307,13,1,0.95,3,0,1.04,1,109.054745400092,5.4,0.367997399996966,116.848056300078
"854",307,14,1,0.8,3,0,1.15,1,118.485188200022,4.2,0.458340600016527,125.168678999995
"855",307,15,1,0.95,4,0,1.18,1,126.71539040003,4.1,0.648414999945089,133.487796000089
"856",307,16,1,0.8,4,0,0.51,1,134.844398400048,5.1,0.326822299975902,142.295824700035
"857",307,17,1,0.65,2,0,1.48,1,143.97411290009,4.6,0.497017799993046,151.095408300054
"858",307,18,1,0.95,3,0,1.39,1,152.603618400055,5.1,0.463275099988095,160.191642899998
"859",307,19,1,0.8,2,0,0.44,1,161.733469800092,5.6,0.914043799974024,170.271537700086
"860",307,20,1,0.8,3,0,2.29,1,171.362539399997,4.4,1.57250359992031,179.359286900028
"861",307,21,1,0.5,2,0,2,1,179.791997399996,5.1,1.57940739998594,188.495342700044
"862",307,22,1,0.65,3,0,2.34,1,188.921020700014,2.7,1.16224779991899,194.807797800051
"863",307,23,1,0.8,2,0,0.89,1,195.650534200016,6,0.284844000008889,203.959813200054
"864",307,24,1,0.65,4,0,4,0,205.679949700017,5.7,0.307038200087845,213.710833900026
"865",307,25,1,0.65,4,0,1.78,1,215.408884300035,2.6,0.302211700007319,220.335614900105
"866",307,26,1,0.65,3,0,3,0,222.038487200043,5.1,0.116859499947168,229.279082500027
"867",307,27,1,0.95,4,0,1.77,1,231.167307800031,2.3,0.291643399978057,235.78323410009
"868",307,28,1,0.8,2,0,0.67,1,237.496617600089,2.3,0.346298999967985,242.168102500029
"869",307,29,1,0.5,3,0,2.68,1,243.827045800048,4.8,0.699883399996907,251.35155510006
"870",307,30,1,0.95,3,0,0.7,1,252.656780000078,6,0.38277210004162,261.063385300105
"871",307,31,1,0.5,4,0,3.52,1,262.685698100016,3,0.377201700001024,268.087915900047
"872",307,32,1,0.8,4,0,1.52,1,269.715887700091,4.8,0.411670399946161,276.951720000012
"873",307,33,1,0.65,3,0,1.76,1,278.545177799999,5.4,0.669869799981825,286.639902400086
"874",307,34,1,0.8,4,0,3.05,0,287.975170499994,5.3,0.379680600017309,295.679258699995
"875",307,35,1,0.95,2,0,0.47,1,297.304906700039,2.6,1.49432990001515,303.42341040005
"876",307,36,1,0.65,4,0,0.59,0,303.93418630003,2.4,1.30544939998072,309.663898700033
"877",307,37,1,0.8,3,0,1.72,1,310.363521400024,4.4,0.404044000082649,317.191916800104
"878",307,38,1,0.5,2,0,1.79,1,318.792964800028,3,0.662516699987464,324.479839600041
"879",307,39,1,0.95,2,0,0.35,1,325.822539600078,5.8,0.376364900032058,334.023782000062
"880",307,40,1,0.5,4,0,4,0,335.652399400016,5.1,0.670924499980174,343.447228000034
"881",307,41,1,0.65,2,0,0.59,1,344.781294300104,5.6,0.0503049000399187,352.456299900077
"882",307,42,1,0.5,2,0,0.3,1,354.411195700057,2.3,0.83213610004168,359.567603100091
"883",307,43,1,0.65,2,0,0.89,1,360.740686400095,6,0.131572699989192,368.896456700051
"884",307,44,1,0.95,2,0,0.23,1,370.769960500067,4.8,0.421565099968575,378.015546500101
"885",307,45,1,0.5,3,0,2.01,0,379.598952000029,5.2,0.824798800051212,387.647859500023
"886",307,46,1,0.95,3,0,0.23,1,388.828345000045,2.8,0.507003900012933,394.159430800006
"887",307,47,1,0.65,4,0,2.67,1,395.657511000056,3.3,0.761749899946153,401.743836200098
"888",307,48,1,0.8,3,0,2.86,1,402.987264700001,3.9,0.56007090001367,409.471815800061
"889",307,49,1,0.65,4,0,3.56,0,410.916854600073,3.3,NA,NA
"890",307,50,1,0.8,2,0,1.11,1,418.239461000077,5.8,1.15077319997363,427.215788600035
"891",307,51,1,0.95,2,0,0.7,1,428.070102600032,4.1,0.349669000017457,434.544014700106
"892",307,52,1,0.5,2,0,0.89,1,436.199290300021,3.2,1.77612219995353,443.199638299993
"893",307,53,1,0.5,3,0,3,0,443.428596700076,3.7,1.37526589992922,450.527468800079
"894",307,54,1,0.95,3,0,1.74,1,451.157339200028,4.7,0.582003899966367,458.464193699998
"895",307,55,1,0.95,4,0,2.96,1,459.887703600107,5.5,1.59575879992917,469.007881900063
"896",307,56,1,0.65,3,0,1.17,1,469.417323600035,4.6,0.366202999954112,476.407946799998
"897",307,57,2,0.5,4,0,4,0,478.046950799995,5.8,0.352878700010478,486.223502000095
"898",307,58,2,0.8,3,0,3,1,487.875701400102,4.8,1.48420860001352,496.18354550004
"899",307,59,2,0.65,4,0,2.67,0,496.70473560004,5.7,NA,NA
"900",307,60,2,0.65,2,0,0.59,1,506.427285200101,5.6,0.914882600074634,514.967761600041
"901",307,61,2,0.95,3,0,1.39,0,516.057932800031,4.3,NA,NA
"902",307,62,2,0.95,3,0,1.04,1,524.379761800054,5.4,0.385634399950504,532.192074700026
"903",307,63,2,0.8,2,0,1.11,1,533.811565900105,4.3,0.0800053999992087,540.215645599994
"904",307,64,2,0.5,2,0,2,0,542.140698400093,5.9,0.0632116999477148,550.127554800012
"905",307,65,2,0.95,2,0,0.35,0,552.069401000044,4.8,NA,NA
"906",307,66,2,0.95,2,0,0.23,1,560.891495299991,5.4,0.314982299925759,568.63207380008
"907",307,67,2,0.65,4,0,4,0,570.322268799995,2.8,NA,NA
"908",307,68,2,0.8,4,0,1.52,1,577.143509600079,5.7,0.459160499973223,585.328322400106
"909",307,69,2,0.8,2,0,0.44,1,586.874245100073,3.1,1.53048640000634,593.529292299994
"910",307,70,2,0.8,4,0,3.05,1,594.003868400003,4.1,1.29605529992841,601.423891700106
"911",307,71,2,0.95,2,0,0.47,0,602.13297460007,3.6,0.858326500048861,608.615911600064
"912",307,72,2,0.5,2,0,1.79,1,609.762754500029,3.7,0.449245500029065,615.936115800054
"913",307,73,2,0.65,4,0,4,0,617.492002700106,4.5,0.279627899988554,624.295737300068
"914",307,74,2,0.5,3,0,3,0,626.021281299996,2.4,0.210468099918216,630.655478500063
"915",307,75,2,0.5,3,0,2.68,1,632.450160700013,3.8,0.349593200022355,638.624568600091
"916",307,76,2,0.5,3,0,1.34,0,640.280119700008,2.5,0.611590899992734,645.415695300093
"917",307,77,2,0.8,2,0,0.15,1,646.809217700036,4.6,1.66218970005866,655.096252700081
"918",307,78,2,0.95,4,0,2.36,1,655.439234100049,2.4,0.360911899944767,660.224267999991
"919",307,79,2,0.95,4,0,2.96,1,661.868419600069,5.6,0.339547500014305,669.832349600038
"920",307,80,2,0.5,3,0,2.01,1,671.497913800064,5.1,0.490493700024672,679.112450400018
"921",307,81,2,0.95,4,0,1.77,0,680.627052800031,5.3,NA,NA
"922",307,82,2,0.65,4,0,1.78,1,689.948683700059,5.2,0.360948499990627,697.53620750003
"923",307,83,2,0.65,2,0,1.48,1,699.180423200014,2.5,0.695577999926172,704.400090200012
"924",307,84,2,0.95,3,0,0.7,1,705.709611800034,4,0.418022700003348,712.151839700062
"925",307,85,2,0.5,2,0,2,0,713.738878300064,5.1,0.385273199994117,721.248080800055
"926",307,86,2,0.65,3,0,2.93,0,722.867993900087,2.4,0.699526299955323,727.991849200102
"927",307,87,2,0.8,3,0,1.15,1,729.2974101,5.9,0.162470199982636,737.384231100092
"928",307,88,2,0.95,4,0,1.18,1,739.226849600091,4.9,0.30508409999311,746.456129600061
"929",307,89,2,0.8,3,0,2.29,0,748.15615090006,2.7,0.679740799940191,753.560048900079
"930",307,90,2,0.65,3,0,0.39,1,754.885372900055,4.8,0.338710499927402,762.04826760001
"931",307,91,2,0.8,3,0,2.86,1,763.714674400049,4.5,1.41785359999631,771.656796000083
"932",307,92,2,0.65,3,0,1.76,1,772.243995400029,3.5,0.815694100107066,778.584349400015
"933",307,93,2,0.8,4,0,3.81,0,779.773727599997,4.7,0.886178600019775,787.384174900013
"934",307,94,2,0.8,2,0,0.89,1,788.503098900081,2.5,0.396623499924317,793.424356500036
"935",307,95,2,0.65,2,0,1.19,1,795.032952100039,5.9,0.371066499967128,803.32811370003
"936",307,96,2,0.95,2,0,0.59,0,804.962270100019,4,1.34951450000517,812.336050600046
"937",307,97,2,0.65,4,0,3.56,0,812.991634600097,2.2,NA,NA
"938",307,98,2,0.95,3,0,1.74,1,819.213326600031,4.2,0.401264099986292,825.840280000004
"939",307,99,2,0.65,3,0,1.17,1,827.444124800037,2.4,0.0916509999660775,831.960020400002
"940",307,100,2,0.5,4,0,0.78,1,833.873607699992,5.4,0.0938656999496743,841.392245299998
"941",307,101,2,0.65,2,0,0.89,1,843.303666200023,4.7,0.156444800086319,850.184391000075
"942",307,102,2,0.5,4,0,2.35,1,852.033030200051,4.6,1.49485050002113,860.152560900082
"943",307,103,2,0.5,4,0,3.52,1,860.662774600089,3.4,0.505516899982467,866.59274620004
"944",307,104,2,0.8,2,0,0.67,1,868.092358299997,3.7,0.343497699941508,874.160174800083
"945",307,105,2,0.5,2,0,1.34,0,875.821725200047,5.7,1.24625720002223,884.792419600068
"946",307,106,2,0.95,2,0,0.08,1,885.551217600005,2.2,0.408923599985428,890.184438600088
"947",307,107,2,0.8,3,0,1.72,0,891.780672700028,5.5,NA,NA
"948",307,108,2,0.8,4,0,2.29,1,901.302424699999,5.8,0.376266400096938,909.504678800004
"949",307,109,2,0.95,4,0,3.55,0,911.133452400099,2.3,1.03083139995579,916.488016800024
"950",307,110,2,0.5,4,0,4,0,917.462356200092,4.1,0.109989700024016,923.695754500106
"951",307,111,2,0.65,3,0,2.34,1,925.590881800046,2.4,0.313049799995497,930.327928500017
"952",307,112,2,0.5,2,0,0.89,1,932.020071600098,5.3,0.927786099957302,940.272460900014
"953",307,113,3,0.65,3,0,1.76,0,941.349737700075,2.1,NA,NA
"954",307,114,3,0.5,2,0,0.89,1,947.472348800045,5.2,1.08650999993552,955.784655400086
"955",307,115,3,0.65,3,0,0.39,1,956.70325390005,2.1,0.156826399965212,960.984077700065
"956",307,116,3,0.8,2,0,0.15,1,962.832397900056,4.8,0.567606099997647,970.224138500053
"957",307,117,3,0.95,4,0,3.55,1,971.661747000064,2.7,0.910588199971244,977.296318000066
"958",307,118,3,0.8,2,0,0.67,1,978.390889700036,6,0.0335147000150755,986.448797699995
"959",307,119,3,0.95,3,0,0.23,1,988.420843700063,5.9,0.431006700033322,996.77591820003
"960",307,120,3,0.95,2,0,0.23,1,998.350018600002,5.2,0.410635099979118,1005.98436500004
"961",307,121,3,0.95,4,0,2.96,1,1007.57889230002,4.4,0.701425099978223,1014.70461470005
"962",307,122,3,0.5,3,0,1.34,1,1016.00850940007,3,0.0880323000019416,1021.12054160004
"963",307,123,3,0.5,3,0,0.45,1,1023.03778560006,3.9,0.26189790002536,1029.22424670006
"964",307,124,3,0.8,3,0,2.29,1,1030.96744300006,5.7,0.796489899978042,1039.48836890003
"965",307,125,3,0.65,4,0,3.56,1,1040.69760230009,4.2,1.45434030005708,1048.37697760004
"966",307,126,3,0.5,4,0,3.52,1,1048.92780220008,5.2,1.13588120008353,1057.2884971
"967",307,127,3,0.5,3,0,2.68,1,1058.15772960009,3.7,0.318780899979174,1064.20083970006
"968",307,128,3,0.95,2,0,0.35,1,1065.88729870005,3.4,1.06474479997996,1072.3763581001
"969",307,129,3,0.95,3,0,1.74,1,1073.31669670006,5.9,0.919557299930602,1082.16046370007
"970",307,130,3,0.65,2,0,0.59,1,1083.24599090009,6,0.338422899949364,1091.60904790007
"971",307,131,3,0.8,2,0,0.44,1,1093.2755916001,2.6,0.50890250003431,1098.40886800003
"972",307,132,3,0.95,4,0,2.36,1,1099.9050703001,5.1,0.267521600006148,1107.29657280003
"973",307,133,3,0.8,4,0,2.29,1,1109.0340914001,2,0.334948100033216,1113.39315080002
"974",307,134,3,0.65,3,0,3,1,1115.06330560008,3.8,0.697114499984309,1121.58435060002
"975",307,135,3,0.8,4,0,1.52,1,1122.89218150009,4.5,0.351691600051709,1129.76892190007
"976",307,136,3,0.95,2,0,0.59,1,1131.42235370004,3.3,0.390372899943031,1137.13670110004
"977",307,137,3,0.95,2,0,0.47,1,1138.75146860001,2.9,0.709198100026697,1144.3845994001
"978",307,138,3,0.5,2,0,1.34,1,1145.68047350005,3.4,1.23208290000912,1152.3367786
"979",307,139,3,0.65,3,0,2.93,1,1153.10965920007,3.2,1.34634530008771,1159.68028980005
"980",307,140,3,0.65,3,0,2.34,1,1160.33910770004,4.9,0.464442500029691,1167.72844740003
"981",307,141,3,0.95,4,0,1.18,1,1169.26908940007,5.3,1.3196313000517,1177.91274910001
"982",307,142,3,0.8,3,0,1.15,1,1178.59832920006,3.6,1.0176682000747,1185.24024489999
"983",307,143,3,0.95,3,0,1.04,1,1186.2276312001,4.1,1.89690549997613,1194.24838670006
"984",307,144,3,0.65,2,0,1.19,1,1194.35656840005,6,0.0354950000764802,1202.41658830002
"985",307,145,3,0.65,4,0,4,0,1204.38622119999,6,1.03915299999062,1213.44882740011
"986",307,146,3,0.65,4,0,1.78,1,1214.41472070001,2.7,1.44564120005816,1220.58549630002
"987",307,147,3,0.8,2,0,0.89,1,1221.14492880006,5.9,0.00411580002401024,1229.08524090005
"988",307,148,3,0.5,4,0,2.35,1,1231.08626600006,5,0.338148700073361,1238.44907870004
"989",307,149,3,0.65,3,0,1.17,0,1240.116041,5.1,NA,NA
"990",307,150,3,0.95,3,0,0.7,0,1249.2386989001,4.4,NA,NA
"991",307,151,3,0.65,2,0,1.48,1,1257.66246200004,5.2,1.21703689999413,1266.1051383001
"992",307,152,3,0.65,4,0,2.67,1,1266.89328200009,3.4,0.979114299989305,1273.29714390007
"993",307,153,3,0.5,2,0,2,0,1274.32301290007,2.3,0.833848400041461,1279.48022350005
"994",307,154,3,0.5,4,0,4,0,1280.65160890005,5.7,0.441198599990457,1288.81658089999
"995",307,155,3,0.5,3,0,2.01,1,1290.38042100007,4.7,0.807481999974698,1297.91222380009
"996",307,156,3,0.8,4,0,4,0,1299.10981130006,3.5,NA,NA
"997",307,157,3,0.8,3,0,1.72,0,1306.63164770009,4.8,NA,NA
"998",307,158,3,0.5,4,0,4,0,1315.4543303001,4.8,NA,NA
"999",307,159,3,0.65,2,0,0.89,1,1324.2766004001,5.2,0.370915599982254,1331.87313150009
"1000",307,160,3,0.5,2,0,1.79,1,1333.50727090007,5.5,0.969394400017336,1342.00097030005
"1001",307,161,3,0.8,3,0,2.86,0,1343.03657560004,4.1,0.83169869997073,1349.99287880003
"1002",307,162,3,0.5,3,0,3,0,1351.16631550004,3.2,0.114540799986571,1356.50441110006
"1003",307,163,3,0.8,2,0,1.11,1,1358.39488690009,5.3,0.273830199963413,1365.99309800006
"1004",307,164,3,0.8,4,0,3.81,0,1367.72436610004,5.3,NA,NA
"1005",307,165,3,0.5,4,0,4,1,1377.04574289999,5.2,0.705641700071283,1384.97671700001
"1006",307,166,3,0.95,3,0,1.39,1,1386.27636510006,5.8,0.555780100054108,1394.65691130003
"1007",307,167,3,0.8,4,0,3.05,0,1396.10619580001,4,NA,NA
"1008",307,168,3,0.95,4,0,1.77,1,1404.12758289999,2.4,0.15978400001768,1408.7132133001
"1009",308,1,1,0.8,4,0,2.9,1,10.014217399992,3.8,0.728541200049222,16.5685825999826
"1010",308,2,1,0.5,4,0,4,0,17.8454611999914,5.6,0.385970200062729,25.8560402999865
"1011",308,3,1,0.5,4,0,2.38,1,27.475498200045,5.9,0.422871000017039,35.8244341000682
"1012",308,4,1,0.5,3,0,1.79,1,37.4070174000226,4,0.399825699976645,43.832101500011
"1013",308,5,1,0.65,2,0,2,0,45.4378245000262,2,0.535551599925384,50.0007242000429
"1014",308,6,1,0.65,3,0,3,0,51.4713918999769,4.5,0.548324899980798,58.5437217999715
"1015",308,7,1,0.8,3,0,3,0,60.0005512000062,4.8,0.559168400010094,67.3840020999778
"1016",308,8,1,0.95,2,0,0.09,0,68.8299172000261,5.4,0.520579700008966,76.7761124999961
"1017",308,9,1,0.5,2,0,1.79,1,78.2612029999727,4.1,0.390641100006178,84.7761797000421
"1018",308,10,1,0.8,4,0,4,0,86.3910988999996,5.1,0.388361299992539,93.9037584000034
"1019",308,11,1,0.5,4,0,4,0,95.5205116000725,3.1,0.379517500055954,101.023738400079
"1020",308,12,1,0.95,4,0,0.05,0,102.649252400035,2.3,0.634416299988516,107.60834939999
"1021",308,13,1,0.95,3,0,0.03,0,108.97907250002,5.4,0.52418549999129,116.928263299982
"1022",308,14,1,0.8,3,0,1,1,118.409296600032,4.2,0.414493400021456,125.047843700042
"1023",308,15,1,0.95,4,0,0.02,0,126.638489100034,4.1,0.397367400000803,133.160352100036
"1024",308,16,1,0.8,4,0,0.64,1,134.768070199993,5.1,0.435719799948856,142.328016399988
"1025",308,17,1,0.65,2,0,2,0,143.897498200065,4.6,0.470176600036211,150.991669100011
"1026",308,18,1,0.95,3,0,0.04,0,152.52660360001,5.1,0.40515410003718,160.056068900041
"1027",308,19,1,0.8,2,0,0.8,1,161.656034399988,5.6,0.549867699970491,169.832286800025
"1028",308,20,1,0.8,3,0,2,0,171.287513400079,4.4,0.529639500076883,178.240492900019
"1029",308,21,1,0.5,2,0,2,0,179.716354700038,5.1,0.567825600039214,187.407848700066
"1030",308,22,1,0.65,3,0,3,0,188.845556300017,2.7,0.742850100039504,194.311934099998
"1031",308,23,1,0.8,2,0,1.6,0,195.574207599973,6,0.529467300046235,204.128357600071
"1032",308,24,1,0.65,4,0,4,0,205.60392620007,5.7,0.53694290004205,213.86427650007
"1033",308,25,1,0.65,4,0,2.38,1,215.332400000072,2.6,0.514904600102454,220.472363300039
"1034",308,26,1,0.65,3,0,3,0,221.962467400008,5.1,0.458007700042799,229.544948199997
"1035",308,27,1,0.95,4,0,0.04,0,231.092129299999,2.3,0.687827800051309,236.103826000006
"1036",308,28,1,0.8,2,0,1.2,1,237.421115200035,2.3,0.518751499941573,242.263942999998
"1037",308,29,1,0.5,3,0,3,0,243.75027910003,4.8,0.410331799997948,250.983917000005
"1038",308,30,1,0.95,3,0,0.02,0,252.578753300011,6,0.373154600034468,260.976213100017
"1039",308,31,1,0.5,4,0,3.57,1,262.608139400021,3,0.408128599985503,268.04077219998
"1040",308,32,1,0.8,4,0,1.93,0,269.637574200053,4.8,0.626499000005424,277.08815570001
"1041",308,33,1,0.65,3,0,2.68,1,278.466750200023,5.4,0.541166900075041,286.432599300053
"1042",308,34,1,0.8,4,0,3.86,1,287.896449199994,5.3,0.587428899947554,295.808421500027
"1043",308,35,1,0.95,2,0,0.07,0,297.226173100062,2.6,0.478125400026329,302.328576800064
"1044",308,36,1,0.65,4,0,0.79,1,303.855542200035,2.4,0.536817000014707,308.816716799978
"1045",308,37,1,0.8,3,0,1.5,1,310.284964299994,4.4,0.395128799951635,317.10409560008
"1046",308,38,1,0.5,2,0,2,0,318.71390219999,3,0.558546200045384,324.296262899996
"1047",308,39,1,0.95,2,0,0.05,0,325.742816100013,5.8,0.425134800025262,333.99233430007
"1048",308,40,1,0.5,4,0,4,0,335.572286900016,5.1,0.423921099980362,343.119967999985
"1049",308,41,1,0.65,2,0,1.19,1,344.701106599998,5.6,0.875252000056207,353.20051850006
"1050",308,42,1,0.5,2,0,0.4,1,354.330316100037,2.3,0.425391600001603,359.080207100022
"1051",308,43,1,0.65,2,0,1.79,1,360.659868400078,6,0.380484400084242,369.064506900031
"1052",308,44,1,0.95,2,0,0.04,0,370.689174600062,4.8,0.391446499968879,377.904472400085
"1053",308,45,1,0.5,3,0,2.68,1,379.518145099981,5.2,0.393506299937144,387.136403899989
"1054",308,46,1,0.95,3,0,0.01,0,388.74790680001,2.8,0.540702300029807,394.112631399999
"1055",308,47,1,0.65,4,0,3.57,0,395.576977699995,3.3,0.667120300000533,401.569037200068
"1056",308,48,1,0.8,3,0,2.51,0,402.907024200074,3.9,0.457553599961102,409.288644300075
"1057",308,49,1,0.65,4,0,4,0,410.836238700082,3.3,0.592542300000787,416.752344300039
"1058",308,50,1,0.8,2,0,2,0,418.164820300066,5.8,0.371812099940144,426.360090599977
"1059",308,51,1,0.95,2,0,0.11,0,427.993382200017,4.1,0.36279220005963,434.480282700039
"1060",308,52,1,0.5,2,0,1.19,1,436.122609000071,3.2,0.437735700048506,441.784481000039
"1061",308,53,1,0.5,3,0,3,0,443.35185690003,3.7,0.477149900048971,449.552581800031
"1062",308,54,1,0.95,3,0,0.05,0,451.080528700026,4.7,0.563409499940462,458.368380500004
"1063",308,55,1,0.95,4,0,0.06,0,459.810066199978,5.5,0.354546999908052,467.688372000004
"1064",308,56,1,0.65,3,0,1.79,1,469.338913500076,4.6,0.588730800081976,476.552569500054
"1065",308,57,2,0.5,4,0,4,0,477.96891559998,5.8,0.431691499892622,486.22408100008
"1066",308,58,2,0.8,3,0,3,0,487.79752240004,4.8,0.435041399905458,495.056185399997
"1067",308,59,2,0.65,4,0,3.57,1,496.626246000058,5.7,0.481891899951734,504.832901900052
"1068",308,60,2,0.65,2,0,1.19,1,506.356078000041,5.6,0.404144599917345,514.38443960005
"1069",308,61,2,0.95,3,0,0.04,0,515.985375900054,4.3,0.427023999975063,522.736487600021
"1070",308,62,2,0.95,3,0,0.03,0,524.314659900032,5.4,0.509796699974686,532.248620399972
"1071",308,63,2,0.8,2,0,2,1,533.743922300055,4.3,0.669011599966325,540.73652070004
"1072",308,64,2,0.5,2,0,2,0,542.072819199995,5.9,0.355741200037301,550.352127199993
"1073",308,65,2,0.95,2,0,0.05,0,552.001726799994,4.8,0.358920400030911,559.184678000049
"1074",308,66,2,0.95,2,0,0.04,0,560.83133950003,5.4,0.32925680000335,568.584283499978
"1075",308,67,2,0.65,4,0,4,0,570.260382800014,2.8,0.348694400046952,575.432447800064
"1076",308,68,2,0.8,4,0,1.93,1,577.088839399978,5.7,0.347693199990317,585.161053900025
"1077",308,69,2,0.8,2,0,0.8,0,586.818538499996,3.1,0.825792900053784,592.768558999989
"1078",308,70,2,0.8,4,0,3.86,0,593.947962500039,4.1,0.416092299972661,600.489003999974
"1079",308,71,2,0.95,2,0,0.07,0,602.078013300081,3.6,0.370710400049575,608.073124099988
"1080",308,72,2,0.5,2,0,2,0,609.707504400052,3.7,0.344486700021662,615.776641400065
"1081",308,73,2,0.65,4,0,4,0,617.437249500072,4.5,0.311857499997132,624.272705800016
"1082",308,74,2,0.5,3,0,3,0,625.966118099983,2.4,0.378180200001225,630.768029600033
"1083",308,75,2,0.5,3,0,3,0,632.39490100008,3.8,0.58375019999221,638.800888400059
"1084",308,76,2,0.5,3,0,1.79,1,640.222230100073,2.5,0.526573100010864,645.273200100055
"1085",308,77,2,0.8,2,0,0.27,0,646.751639100024,4.6,0.504924400011078,653.880560200079
"1086",308,78,2,0.95,4,0,0.05,0,655.380711000063,2.4,0.491805900004692,660.296884900075
"1087",308,79,2,0.95,4,0,0.06,0,661.810241900035,5.6,0.422023499966599,669.856545099989
"1088",308,80,2,0.5,3,0,2.68,1,671.439586000051,5.1,1.23705019999761,679.801319500082
"1089",308,81,2,0.95,4,0,0.04,0,680.569255099981,5.3,0.451412199996412,688.344369000057
"1090",308,82,2,0.65,4,0,2.38,1,689.898051400087,5.2,0.462121600052342,697.584906800068
"1091",308,83,2,0.65,2,0,2,0,699.127857199986,2.5,0.508721700054593,704.160432700068
"1092",308,84,2,0.95,3,0,0.02,0,705.656801200006,4,0.447687799925916,712.128963800031
"1093",308,85,2,0.5,2,0,2,0,713.686209300067,5.1,0.574710800079629,721.384544600034
"1094",308,86,2,0.65,3,0,3,0,722.814980100025,2.4,0.601993500022218,727.840436900035
"1095",308,87,2,0.8,3,0,1,0,729.243499299977,5.9,0.49747900001239,737.664454600075
"1096",308,88,2,0.95,4,0,0.02,0,739.172225799994,4.9,0.45735409995541,746.552845800063
"1097",308,89,2,0.8,3,0,2,0,748.10076010006,2.7,0.624395099934191,753.448687499971
"1098",308,90,2,0.65,3,0,0.6,0,754.829368400038,4.8,0.979586300090887,762.633029600023
"1099",308,91,2,0.8,3,0,2.51,0,763.658421400003,4.5,0.418200699961744,770.600983400014
"1100",308,92,2,0.65,3,0,2.68,0,772.18788750004,3.5,0.462041200022213,778.177095100051
"1101",308,93,2,0.8,4,0,4,0,779.720082500018,4.7,0.468703099992126,786.912748100003
"1102",308,94,2,0.8,2,0,1.6,0,788.449077800033,2.5,0.69922269997187,793.672812600038
"1103",308,95,2,0.65,2,0,2,0,794.978636200074,5.9,0.410680699977092,803.312518200022
"1104",308,96,2,0.95,2,0,0.09,0,804.906900900067,4,0.381777699920349,811.312756099971
"1105",308,97,2,0.65,4,0,4,0,812.936451300047,2.2,0.800689799943939,817.960591500043
"1106",308,98,2,0.95,3,0,0.05,0,819.165029400028,4.2,0.36352190002799,825.753064900055
"1107",308,99,2,0.65,3,0,1.79,1,827.394782599993,2.4,0.517840499989688,832.337183100055
"1108",308,100,2,0.5,4,0,0.79,1,833.824492800049,5.4,0.303804300026968,841.553375700023
"1109",308,101,2,0.65,2,0,1.79,0,843.25465700007,4.7,0.302240999997593,850.281090000062
"1110",308,102,2,0.5,4,0,2.38,1,851.984048800077,4.6,0.408621300011873,859.017103700084
"1111",308,103,2,0.5,4,0,3.57,1,860.613536900026,3.4,0.427705400041305,866.465399299981
"1112",308,104,2,0.8,2,0,1.2,0,868.042877700063,3.7,0.61020210001152,874.377075399971
"1113",308,105,2,0.5,2,0,1.79,1,875.771785499994,5.7,0.473721300018951,883.969629000057
"1114",308,106,2,0.95,2,0,0.01,0,885.50105229998,2.2,0.475263600004837,890.200955400011
"1115",308,107,2,0.8,3,0,1.5,1,891.730775900069,5.5,0.370139500009827,899.624941400019
"1116",308,108,2,0.8,4,0,2.9,0,901.259846000001,5.8,0.58902129996568,909.673132400028
"1117",308,109,2,0.95,4,0,0.07,0,911.089064500062,2.3,0.587791200028732,916.000585300033
"1118",308,110,2,0.5,4,0,4,0,917.417839900008,4.1,0.395215300028212,923.936747499974
"1119",308,111,2,0.65,3,0,3,0,925.546609300072,2.4,0.382509500021115,930.353053200059
"1120",308,112,2,0.5,2,0,1.19,1,931.975721900002,5.3,0.900718799908645,940.201514000073
"1121",308,113,3,0.65,3,0,2.68,1,941.305800099974,2.1,0.483129099942744,945.913715600036
"1122",308,114,3,0.5,2,0,1.19,1,947.435847299988,5.2,0.373167000012472,955.033400200075
"1123",308,115,3,0.65,3,0,0.6,1,956.665317000006,2.1,0.379942800034769,961.169274199987
"1124",308,116,3,0.8,2,0,0.27,1,962.794364699977,4.8,0.61444609996397,970.232835200033
"1125",308,117,3,0.95,4,0,0.07,0,971.623358700075,2.7,0.654103300068527,977.001235399977
"1126",308,118,3,0.8,2,0,1.2,0,978.3521893,6,0.840535499970429,987.217039700015
"1127",308,119,3,0.95,3,0,0.01,0,988.381596200052,5.9,0.487660400103778,996.793223400018
"1128",308,120,3,0.95,2,0,0.04,0,998.310661400086,5.2,0.346021099947393,1005.88083689997
"1129",308,121,3,0.95,4,0,0.06,1,1007.53984770004,4.4,0.389703700086102,1014.35345950001
"1130",308,122,3,0.5,3,0,1.79,1,1015.9691164,3,0.375488599995151,1021.36903910001
"1131",308,123,3,0.5,3,0,0.6,1,1022.99863520009,3.9,0.350659199990332,1029.27324610006
"1132",308,124,3,0.8,3,0,2,1,1030.92771149997,5.7,0.445384499966167,1039.09662640002
"1133",308,125,3,0.65,4,0,4,0,1040.65637039999,4.2,0.480986500042491,1047.36087880004
"1134",308,126,3,0.5,4,0,3.57,1,1048.8849535,5.2,0.435696100001223,1056.54542460002
"1135",308,127,3,0.5,3,0,3,0,1058.1148785,3.7,0.402649599942379,1064.24100280006
"1136",308,128,3,0.95,2,0,0.05,0,1065.84345819999,3.4,0.350057899951935,1071.61779490008
"1137",308,129,3,0.95,3,0,0.05,0,1073.27283540007,5.9,0.428314400021918,1081.62519609998
"1138",308,130,3,0.65,2,0,1.19,1,1083.20198470005,6,0.36701509996783,1091.59314900008
"1139",308,131,3,0.8,2,0,0.8,1,1093.23119880003,2.6,0.58574300003238,1098.441429
"1140",308,132,3,0.95,4,0,0.05,1,1099.86083610007,5.1,0.384323900099844,1107.36901800008
"1141",308,133,3,0.8,4,0,2.9,1,1108.98982260004,2,0.634818200021982,1113.64898439997
"1142",308,134,3,0.65,3,0,3,0,1115.01954140002,3.8,0.469968099961989,1121.3132491
"1143",308,135,3,0.8,4,0,1.93,1,1122.84835470002,4.5,0.348231500014663,1129.72145870002
"1144",308,136,3,0.95,2,0,0.09,0,1131.37893510005,3.3,0.362272799946368,1137.0655572
"1145",308,137,3,0.95,2,0,0.07,0,1138.70892820007,2.9,0.416542700026184,1144.04934730008
"1146",308,138,3,0.5,2,0,1.79,1,1145.63795400003,3.4,0.443222000030801,1151.50562220009
"1147",308,139,3,0.65,3,0,3,0,1153.06752789998,3.2,0.493999499944039,1158.78507500002
"1148",308,140,3,0.65,3,0,3,0,1160.29624400008,4.9,0.0205614999867976,1167.24107560003
"1149",308,141,3,0.95,4,0,0.02,1,1169.22550970002,5.3,1.21989780000877,1177.76928040001
"1150",308,142,3,0.8,3,0,1,1,1178.55448480009,3.6,0.455008300021291,1184.63319640001
"1151",308,143,3,0.95,3,0,0.03,0,1186.18333979999,4.1,0.614298700005747,1192.92179370008
"1152",308,144,3,0.65,2,0,2,0,1194.31257369998,6,0.585342300008051,1202.92125600006
"1153",308,145,3,0.65,4,0,4,0,1204.3409519,6,0.252131900051609,1212.61682660005
"1154",308,146,3,0.65,4,0,2.38,0,1214.36971740006,2.7,0.915561300003901,1220.00979040004
"1155",308,147,3,0.8,2,0,1.6,0,1221.0993156,5.9,0.473758399952203,1229.49769580003
"1156",308,148,3,0.5,4,0,2.38,1,1231.02899530006,5,0.509169599972665,1238.56287380005
"1157",308,149,3,0.65,3,0,1.79,1,1240.05879929999,5.1,0.386484600021504,1247.57017349999
"1158",308,150,3,0.95,3,0,0.02,0,1249.18882090005,4.4,0.404891500016674,1256.0175815
"1159",308,151,3,0.65,2,0,2,0,1257.61783840007,5.2,0.431891600019298,1265.27321230003
"1160",308,152,3,0.65,4,0,3.57,0,1266.84638600005,3.4,0.458984699915163,1272.73004330008
"1161",308,153,3,0.5,2,0,2,0,1274.27617680002,2.3,0.377307099988684,1278.9770362
"1162",308,154,3,0.5,4,0,4,0,1280.6048038,5.7,0.136827900074422,1288.46521629998
"1163",308,155,3,0.5,3,0,2.68,1,1290.33354750008,4.7,0.327187599963509,1297.38592959999
"1164",308,156,3,0.8,4,0,4,0,1299.06382180005,3.5,0.421825399971567,1305.00932269997
"1165",308,157,3,0.8,3,0,1.5,0,1306.59266010008,4.8,0.993389599956572,1314.41031240008
"1166",308,158,3,0.5,4,0,4,0,1315.42204920005,4.8,0.379682099912316,1322.62540240004
"1167",308,159,3,0.65,2,0,1.79,0,1324.25081240002,5.2,0.406077099964023,1331.88177360001
"1168",308,160,3,0.5,2,0,2,0,1333.48078750004,5.5,1.0851903000148,1342.08949210006
"1169",308,161,3,0.8,3,0,2.51,0,1343.0094942,4.1,0.435420099995099,1349.56950930005
"1170",308,162,3,0.5,3,0,3,0,1351.13920600002,3.2,0.453638899954967,1356.81749649998
"1171",308,163,3,0.8,2,0,2,0,1358.36897339998,5.3,0.348804699955508,1366.0415082
"1172",308,164,3,0.8,4,0,4,0,1367.69779020001,5.3,0.339529199991375,1375.36146140005
"1173",308,165,3,0.5,4,0,4,0,1377.02704870002,5.2,0.350130999926478,1384.60128599999
"1174",308,166,3,0.95,3,0,0.04,0,1386.25624040002,5.8,0.65026309993118,1394.72967540007
"1175",308,167,3,0.8,4,0,3.86,0,1396.08447240002,4,0.373015700024553,1402.48177040007
"1176",308,168,3,0.95,4,0,0.04,1,1404.11378630006,2.4,0.544113900046796,1409.08151809999
"1177",309,1,1,0.8,4,0,0.04,0,10.0125618000748,3.8,1.23970769997686,17.0882897999836
"1178",309,2,1,0.5,4,0,4,0,17.8544251000276,5.6,0.568961199955083,26.0472802000586
"1179",309,3,1,0.5,4,0,2.38,1,27.4834055000683,5.9,0.647586600040086,36.056490899995
