"","subjID","trial","block","cost_one","amount_one","cost_two","amount_two","choice","trial_onset","fix_dura","choice_rt","feedback_onset"
"1",301,1,1,0.5,4,0,0.94,1,10.0169568521865,3.8,0.868817262917673,16.7572973007141
"2",301,2,1,0.1,4,0,4,0,17.8965768695361,5.6,0.277328634113474,25.8357560229497
"3",301,3,1,0.1,4,0,1.86,1,27.5660320191637,5.9,0.298242453833609,35.8263631134942
"4",301,4,1,0.1,3,0,0.44,1,37.5364035482744,4,0.299497843952395,43.9001475024138
"5",301,5,1,0.3,2,0,1.42,0,45.6106572271442,2,0.56614973667638,50.2503191803703
"6",301,6,1,0.3,3,0,2.3,0,51.6962441793034,4.5,0.24233374573987,58.5040885109288
"7",301,7,1,0.5,3,0,0.31,1,60.2685247072468,4.8,0.26875145171789,67.3996221188836
"8",301,8,1,0.7,2,0,0.41,0,69.1383168923844,5.4,0.934071872466575,77.543417220887
"9",301,9,1,0.1,2,0,1.74,1,78.6158747201248,4.1,0.333253143215643,85.1095827585718
"10",301,10,1,0.5,4,0,1.56,1,86.7812757260172,5.1,0.328485188924788,94.2614407201468
"11",301,11,1,0.1,4,0,4,1,95.9394931984561,3.1,0.421346135310614,101.524374240564
"12",301,12,1,0.7,4,0,1.55,0,103.109554316757,2.3,0.299281370136669,107.772504191218
"13",301,13,1,0.7,3,0,1.04,1,109.483813051949,5.4,0.680024444160154,117.635261767406
"14",301,14,1,0.5,3,0,0.1,1,118.962068889236,4.2,0.543895991442241,125.762593008686
"15",301,15,1,0.7,4,0,0.77,1,127.225630894764,4.1,0.586015554512869,133.977730453758
"16",301,16,1,0.5,4,0,0.21,1,135.402810762383,5.1,0.464998001172717,143.036438310493
"17",301,17,1,0.3,2,0,1.77,0,144.591946858049,4.6,0.523869398345141,151.776283397407
"18",301,18,1,0.7,3,0,1.39,0,153.259901306902,5.1,0.301640855719143,160.727323182766
"19",301,19,1,0.5,2,0,0.53,1,162.432133088734,5.6,0.507687585622079,170.598272001719
"20",301,20,1,0.5,3,0,0.2,1,172.098101745853,4.4,0.271720461199948,178.836461537976
"21",301,21,1,0.1,2,0,2,0,180.571798597186,5.1,0.272700123721734,188.004364633551
"22",301,22,1,0.3,3,0,1.84,0,189.741751873605,2.7,0.321151150866626,194.828237508118
"23",301,23,1,0.5,2,0,1.07,0,196.512918114434,6,0.33679612432843,204.899818841438
"24",301,24,1,0.3,4,0,1.37,1,206.56998543147,5.7,0.312729213378134,214.642500999414
"25",301,25,1,0.3,4,0,0.55,1,216.336222547723,2.6,0.247819065813019,221.249838829714
"26",301,26,1,0.3,3,0,2.75,0,223.008645126732,5.1,0.808950402214577,230.976976745656
"27",301,27,1,0.7,4,0,1.16,0,232.177075580964,2.3,0.702367465091811,237.239188950039
"28",301,28,1,0.5,2,0,0.8,0,238.545566553058,2.3,1.05606039777467,243.966849484334
"29",301,29,1,0.1,3,0,0.88,1,244.916853513591,4.8,0.279643481846961,252.054783676294
"30",301,30,1,0.7,3,0,0.7,0,253.781745806018,6,0.394242665566708,262.245856580567
"31",301,31,1,0.1,4,0,2.79,1,263.859087396958,3,0.259443077657124,269.189706907095
"32",301,32,1,0.5,4,0,0.62,1,270.937687538219,4.8,0.705451821935185,278.52437463559
"33",301,33,1,0.3,3,0,1.38,1,279.825375550468,5.4,0.847494197079868,288.139689604991
"34",301,34,1,0.5,4,0,1.25,1,289.298669081061,5.3,0.353186115337849,297.0190473256
"35",301,35,1,0.7,2,0,0.32,1,298.672280764958,2.6,0.685441819897278,304.018411730037
"36",301,36,1,0.3,4,0,0.18,1,305.33993183445,2.4,0.245208344196726,310.050080506138
"37",301,37,1,0.5,3,0,0.15,1,311.813695445043,4.4,0.547824517160734,318.824782617627
"38",301,38,1,0.1,2,0,2,0,320.283340127767,3,0.24279434513528,325.583203370039
"39",301,39,1,0.7,2,0,0.24,1,327.350055540545,5.8,0.51514092129355,335.72705970095
"40",301,40,1,0.1,4,0,3.72,1,337.219256372942,5.1,0.283372519833847,344.662789889251
"41",301,41,1,0.3,2,0,0.71,1,346.385817962902,5.6,1.0043409320383,355.053494709032
"42",301,42,1,0.1,2,0,0.39,1,356.055730946749,2.3,0.27292528809221,360.692805879871
"43",301,43,1,0.3,2,0,1.06,0,362.430136236295,6,0.943076472140092,371.435308696401
"44",301,44,1,0.7,2,0,0.16,1,372.498792012907,4.8,0.312263478655495,379.675290462038
"45",301,45,1,0.1,3,0,0.66,1,381.36952475307,5.2,0.318355952477305,388.953990228656
"46",301,46,1,0.7,3,0,0.23,1,390.642852176826,2.8,0.312542366453727,395.816957958257
"47",301,47,1,0.3,4,0,0.82,1,397.513659181729,3.3,0.206157731986423,403.081037051785
"48",301,48,1,0.5,3,0,0.26,1,404.881808457016,3.9,0.328620682572364,411.167868728382
"49",301,49,1,0.3,4,0,1.09,1,412.846030628675,3.3,0.637455737425171,418.848650040846
"50",301,50,1,0.5,2,0,1.34,0,420.218104479428,5.8,0.314405305346554,428.398721856429
"51",301,51,1,0.7,2,0,0.49,0,430.090850663089,4.1,0.382557819840258,436.637485759341
"52",301,52,1,0.1,2,0,1.16,1,438.261520120214,3.2,0.144574881769131,443.646121405468
"53",301,53,1,0.1,3,0,1.1,1,445.509115996783,3.7,0.264126891578599,451.540117180279
"54",301,54,1,0.7,3,0,1.74,0,453.282780377044,4.7,0.334752658914567,460.379572219299
"55",301,55,1,0.7,4,0,1.94,0,462.05165073135,5.5,0.351867126159959,469.96625023109
"56",301,56,1,0.3,3,0,0.92,0,471.624639934521,4.6,0.687206792537381,478.977636042732
"57",301,57,2,0.1,4,0,4,0,480.298537537666,5.8,0.383815975135349,488.553203575452
"58",301,58,2,0.5,3,0,0.31,1,490.175801229635,4.8,0.406975908202639,497.449113642433
"59",301,59,2,0.3,4,0,0.82,1,499.049258458675,5.7,0.276054282784116,507.087141376363
"60",301,60,2,0.3,2,0,0.71,1,508.818701599536,5.6,0.441640950525652,516.918855106333
"61",301,61,2,0.7,3,0,1.39,1,518.482973623377,4.3,0.61851348853088,525.445741312211
"62",301,62,2,0.7,3,0,1.04,1,526.834089806612,5.4,0.280759033041249,534.572323585691
"63",301,63,2,0.5,2,0,1.34,1,536.298168584119,4.3,0.467211722451793,543.123910322957
"64",301,64,2,0.1,2,0,2,0,544.664004196748,5.9,0.248192759661833,552.874375662655
"65",301,65,2,0.7,2,0,0.24,0,554.633649274497,4.8,0.661029261887506,562.162439501889
"66",301,66,2,0.7,2,0,0.16,1,563.508640781455,5.4,0.477293555874894,571.449538294534
"67",301,67,2,0.3,4,0,1.37,1,572.982088766905,2.8,0.996557750315787,578.841627282653
"68",301,68,2,0.5,4,0,0.62,1,579.851493037286,5.7,0.314601632876474,587.954496255951
"69",301,69,2,0.5,2,0,0.53,1,589.664892213421,3.1,0.465771460534597,595.295076326771
"70",301,70,2,0.5,4,0,1.25,1,596.836074413269,4.1,0.380764010359144,603.382883715639
"71",301,71,2,0.7,2,0,0.32,1,605.009155499304,3.6,0.44107013909661,611.117336313403
"72",301,72,2,0.1,2,0,2,0,612.683442597307,3.7,0.0169292004211457,618.46660733388
"73",301,73,2,0.3,4,0,1.64,1,620.456559472625,4.5,0.332719859181452,627.349607581956
"74",301,74,2,0.1,3,0,1.1,1,629.023510715454,2.4,0.263617704081753,633.755287412443
"75",301,75,2,0.1,3,0,0.88,1,635.500762793682,3.8,0.401711407222137,641.770743168829
"76",301,76,2,0.1,3,0,0.44,1,643.37791350844,2.5,0.262601699240349,648.202215380385
"77",301,77,2,0.5,2,0,0.18,1,649.946190455875,4.6,0.490176118039926,657.102593182497
"78",301,78,2,0.7,4,0,1.55,0,658.618512303455,2.4,0.467615438217308,663.552677796897
"79",301,79,2,0.7,4,0,1.94,0,665.093844954185,5.6,0.867262048664088,673.623196117376
"80",301,80,2,0.1,3,0,0.66,1,674.762927990064,5.1,0.184550247996867,682.111103605632
"81",301,81,2,0.7,4,0,1.16,1,683.934720503863,5.3,0.544287856450865,691.846183108406
"82",301,82,2,0.3,4,0,0.55,1,693.311716368739,5.2,0.41248295466221,700.989298767047
"83",301,83,2,0.3,2,0,1.77,0,702.584496682578,2.5,0.704963570774908,707.860516993195
"84",301,84,2,0.7,3,0,0.7,1,709.161883306393,4,0.271144119417386,715.492170205303
"85",301,85,2,0.1,2,0,2,0,717.226898135639,5.1,0.0596168097449663,724.4669727322
"86",301,86,2,0.3,3,0,2.3,1,726.413320408109,2.4,0.99479159259954,731.874414770151
"87",301,87,2,0.5,3,0,0.1,1,732.886410105693,5.9,0.311466712805668,741.177532230107
"88",301,88,2,0.7,4,0,0.77,1,742.873024676435,4.9,0.436511548166891,750.272782683991
"89",301,89,2,0.5,3,0,0.2,1,751.844386928774,2.7,0.333249983013957,756.944372944881
"90",301,90,2,0.3,3,0,0.31,1,758.620299397508,4.8,0.283198313716639,765.766601724522
"91",301,91,2,0.5,3,0,0.26,1,767.491112327789,4.5,0.748099928737702,774.814477199935
"92",301,92,2,0.3,3,0,1.38,1,776.075432039073,3.5,0.310372097947493,781.949660357324
"93",301,93,2,0.5,4,0,1.56,1,783.646194485132,4.7,0.287845785318041,790.693990955503
"94",301,94,2,0.5,2,0,1.07,1,792.411683423636,2.5,0.504122878121962,797.479089340482
"95",301,95,2,0.3,2,0,1.42,1,798.981490698737,5.9,0.819418175268311,807.771343212124
"96",301,96,2,0.7,2,0,0.41,1,808.959022849838,4,0.516496647815984,815.539249704916
"97",301,97,2,0.3,4,0,1.09,1,817.029511938452,2.2,0.924517397700129,822.210007252663
"98",301,98,2,0.7,3,0,1.74,0,823.294432040653,4.2,1.09602509832166,830.649354291791
"99",301,99,2,0.3,3,0,0.92,1,831.559911103527,2.4,0.31477386386814,836.352714850262
"100",301,100,2,0.1,4,0,0.62,1,838.039724130194,5.4,0.243179099690224,845.743463517842
"101",301,101,2,0.3,2,0,1.06,1,847.507197359336,4.7,0.715052119626307,854.983288063444
"102",301,102,2,0.1,4,0,1.86,1,856.274469836665,4.6,0.348184701147602,863.286344689518
"103",301,103,2,0.1,4,0,2.79,1,864.945220668983,3.4,0.285261530390471,870.69419083826
"104",301,104,2,0.5,2,0,0.8,1,872.418328537728,3.7,0.325032668584754,878.508775090027
"105",301,105,2,0.1,2,0,1.74,1,880.190217674692,5.7,0.637745290904149,888.596341908541
"106",301,106,2,0.7,2,0,0.05,1,889.965278469072,2.2,0.176308046979557,894.40339579472
"107",301,107,2,0.5,3,0,0.15,1,896.236951132221,5.5,0.270194083786464,904.066328683097
"108",301,108,2,0.5,4,0,0.94,1,905.801837973299,5.8,0.0607825291413064,913.721768733281
"109",301,109,2,0.7,4,0,2.32,1,915.667849767172,2.3,0.303995205973933,920.328416849563
"110",301,110,2,0.1,4,0,3.72,1,922.033537245347,4.1,0.605511233726702,928.81674819987
"111",301,111,2,0.3,3,0,1.84,0,930.218227727294,2.4,1.48791380865896,936.167860037828
"112",301,112,2,0.1,2,0,1.16,1,936.68507286635,5.3,0.267702659783936,944.31871858562
"113",301,113,3,0.3,3,0,1.38,1,946.060550649343,2.1,0.387850367610554,950.60647430519
"114",301,114,3,0.1,2,0,1.16,1,952.226225407705,5.2,0.240642247787946,959.726026315
"115",301,115,3,0.3,3,0,0.31,1,961.491888157302,2.1,0.440738712944494,966.09306596447
"116",301,116,3,0.5,2,0,0.18,1,967.661546349888,4.8,0.0410715611869819,974.565240388642
"117",301,117,3,0.7,4,0,2.32,0,976.533091261884,2.7,0.197354990195436,981.49101080631
"118",301,118,3,0.5,2,0,0.8,0,983.304158351386,6,0.791508854095355,992.16244187204
"119",301,119,3,0.7,3,0,0.23,1,993.380314866695,5.9,0.280676077747103,1001.62567490057
"120",301,120,3,0.7,2,0,0.16,1,1003.34982010552,5.2,0.217610697915006,1010.83316149737
"121",301,121,3,0.7,4,0,1.94,0,1012.62234286292,4.4,0.196394683908693,1019.26452349689
"122",301,122,3,0.1,3,0,0.44,1,1021.07425604902,3,0.149752082178111,1026.28705850007
"123",301,123,3,0.1,3,0,0.15,1,1028.14529382765,3.9,0.244397752464465,1034.35067335997
"124",301,124,3,0.5,3,0,0.2,1,1036.11291953653,5.7,0.350757500343661,1044.22131010901
"125",301,125,3,0.3,4,0,1.09,0,1045.87779934615,4.2,0.346008507262923,1052.49302582991
"126",301,126,3,0.1,4,0,2.79,1,1054.15481117005,5.2,0.263998508384702,1061.68415996309
"127",301,127,3,0.1,3,0,0.88,1,1063.42728375925,3.7,0.517351087346469,1069.70741312211
"128",301,128,3,0.7,2,0,0.24,1,1071.1964649984,3.4,0.353807489993869,1077.01025643457
"129",301,129,3,0.7,3,0,1.74,0,1078.66284835298,5.9,0.288928549420234,1086.91404211917
"130",301,130,3,0.3,2,0,0.71,1,1088.6290097034,6,0.660008911768728,1097.35246400925
"131",301,131,3,0.5,2,0,0.53,1,1098.69947074522,2.6,0.211214054681022,1103.57611859289
"132",301,132,3,0.7,4,0,1.55,0,1105.37140823327,5.1,0.219779781346006,1112.75136876235
"133",301,133,3,0.5,4,0,0.94,1,1114.53895264596,2,0.322724141254639,1118.92679195286
"134",301,134,3,0.3,3,0,2.75,0,1120.61080417652,3.8,1.02616212466683,1127.49430571159
"135",301,135,3,0.5,4,0,0.62,1,1128.47672748475,4.5,0.219071896168316,1135.2615904347
"136",301,136,3,0.7,2,0,0.41,1,1137.04967165505,3.3,0.241806782108597,1142.65257493233
"137",301,137,3,0.7,2,0,0.32,1,1144.41848852294,2.9,0.519570338979065,1149.90193736164
"138",301,138,3,0.1,2,0,1.74,1,1151.38913538462,3.4,0.592823023965593,1157.44331822757
"139",301,139,3,0.3,3,0,2.3,0,1158.86052844893,3.2,0.753696645919717,1164.87376692881
"140",301,140,3,0.3,3,0,1.84,1,1166.12613549997,4.9,0.00382463408777767,1173.10771468435
"141",301,141,3,0.7,4,0,0.77,1,1175.11024640093,5.3,0.253033003566088,1182.72898426378
"142",301,142,3,0.5,3,0,0.1,1,1184.48550020462,3.6,0.350646893285102,1190.50367610461
"143",301,143,3,0.7,3,0,1.04,1,1192.15973713442,4.1,0.335214838411048,1198.66346143211
"144",301,144,3,0.3,2,0,1.42,1,1200.33487590678,6,0.523114505167541,1208.92650634964
"145",301,145,3,0.3,4,0,1.37,1,1210.41082068858,6,0.140138353629482,1218.60807455232
"146",301,146,3,0.3,4,0,0.55,1,1220.47485151002,2.7,0.618562866682623,1225.85290446236
"147",301,147,3,0.5,2,0,1.07,0,1227.24069320604,5.9,0.76066726078443,1235.96410919445
"148",301,148,3,0.1,4,0,1.86,1,1237.2100720368,5,0.798089579076077,1245.07454994778
"149",301,149,3,0.3,3,0,0.92,1,1246.2827890676,5.1,0.615148663788204,1254.05819471899
"150",301,150,3,0.7,3,0,0.7,1,1255.44954461494,4.4,0.375493583999742,1262.29085034707
"151",301,151,3,0.3,2,0,1.77,0,1263.92520592664,5.2,0.733509672587388,1271.92068999844
"152",301,152,3,0.3,4,0,0.82,1,1273.19433857769,3.4,0.420144863645874,1279.08009057138
"153",301,153,3,0.1,2,0,2,1,1280.6672406383,2.3,0.418629151911773,1285.41412309934
"154",301,154,3,0.1,4,0,4,0,1287.00131345882,5.7,0.227012692950666,1294.98980874459
"155",301,155,3,0.1,3,0,0.66,1,1296.76956954893,4.7,0.0243896465472062,1303.56551967147
"156",301,156,3,0.5,4,0,1.87,1,1305.54832856933,3.5,0.312077421781396,1311.41346617241
"157",301,157,3,0.5,3,0,0.15,1,1313.10860625625,4.8,0.0200581951139611,1319.9854089538
"158",301,158,3,0.1,4,0,3.72,0,1321.97228108098,4.8,0.0424205722811166,1328.88795109904
"159",301,159,3,0.3,2,0,1.06,1,1330.85364355453,5.2,0.769391392558646,1338.88257796613
"160",301,160,3,0.1,2,0,2,0,1340.12006317243,5.5,0.191547724575685,1347.87254235065
"161",301,161,3,0.5,3,0,0.26,1,1349.69002924767,4.1,0.22938758451528,1356.10521140959
"162",301,162,3,0.1,3,0,1.1,1,1357.8845080593,3.2,0.0507524440208726,1363.19284972767
"163",301,163,3,0.5,2,0,1.34,0,1365.14920181206,5.3,1.41023447116368,1373.92694877787
"164",301,164,3,0.5,4,0,1.56,1,1374.52243466678,5.3,0.255362862258153,1382.14294816795
"165",301,165,3,0.1,4,0,4,0,1383.8966452089,5.2,0.477912955404463,1391.67713009444
"166",301,166,3,0.7,3,0,1.39,0,1393.20483202738,5.8,0.437239579629932,1401.50073553694
"167",301,167,3,0.5,4,0,1.25,1,1403.07187681218,4,0.267301314170254,1409.40378923983
"168",301,168,3,0.7,4,0,1.16,1,1411.14576114248,2.4,0.205826700859689,1415.81133200921
"169",302,1,1,0.5,4,0,0.65,1,10.0963320999872,3.8,1.12206129997503,17.271681400016
"170",302,2,1,0.1,4,0,4,1,18.156042400049,5.6,0.542234499938786,26.3818712000502
"171",302,3,1,0.1,4,0,2.38,1,27.8471985000651,5.9,0.58352390001528,36.4000216000713
"172",302,4,1,0.1,3,0,1.79,1,37.8329186000628,4,0.639897000044584,44.5237036000472
"173",302,5,1,0.3,2,0,1.19,1,45.8933188000228,2,0.680036199977621,50.6542330000084
"174",302,6,1,0.3,3,0,2.07,0,51.9815418000799,4.5,1.21399940003175,59.7408756000223
"175",302,7,1,0.5,3,0,1.31,0,60.535872300039,4.8,0.783378200023435,68.1538239000365
"176",302,8,1,0.7,2,0,0.46,0,69.3790962999919,5.4,0.540405799984001,77.358748300001
"177",302,9,1,0.1,2,0,1.79,1,78.8240106999874,4.1,0.789831500034779,85.7554532000795
"178",302,10,1,0.5,4,0,1.08,0,86.9713422000641,5.1,0.869295899989083,94.9933053000132
"179",302,11,1,0.1,4,0,4,0,96.1299878000282,3.1,0.826686099986546,102.116133000003
"180",302,12,1,0.7,4,0,0.26,0,103.297452300088,2.3,0.537304199999198,108.186597299995
"181",302,13,1,0.7,3,0,0.7,0,109.655715900008,5.4,0.662727800081484,117.760511800065
"182",302,14,1,0.5,3,0,0.44,0,119.105408200063,4.2,1.52937130001374,126.864185300074
"183",302,15,1,0.7,4,0,0.13,1,127.340151600074,4.1,0.690905999974348,134.169338500011
"184",302,16,1,0.5,4,0,0.14,1,135.486071599997,5.1,0.583912799949758,143.200538899982
"185",302,17,1,0.3,2,0,1.48,0,144.626192099997,4.6,0.548233299981803,151.817016600049
"186",302,18,1,0.7,3,0,0.94,0,153.275741200079,5.1,0.673231399967335,161.0898973
"187",302,19,1,0.5,2,0,0.07,1,162.425805800012,5.6,0.644587199902162,170.7258592
"188",302,20,1,0.5,3,0,0.88,0,172.089944600011,4.4,1.67032260005362,180.192659500055
"189",302,21,1,0.1,2,0,2,0,180.531170400092,5.1,0.600685200071894,188.279042100068
"190",302,22,1,0.3,3,0,1.66,1,189.685537600075,2.7,0.66352179995738,195.089969700086
"191",302,23,1,0.5,2,0,0.14,1,196.435475600068,6,0.486636599991471,204.952800899977
"192",302,24,1,0.3,4,0,4,0,206.473827700014,5.7,0.608536100015044,214.829682699987
"193",302,25,1,0.3,4,0,2.08,1,216.229566400056,2.6,1.09442520001903,221.97339509998
"194",302,26,1,0.3,3,0,2.48,0,222.88606629998,5.1,1.2095805000281,231.232777200057
"195",302,27,1,0.7,4,0,0.2,1,232.031588800019,2.3,1.02832040004432,237.399926500046
"196",302,28,1,0.5,2,0,0.11,1,238.379176100018,2.3,0.977072300040163,243.696657499997
"197",302,29,1,0.1,3,0,3,0,244.727006100002,4.8,0.653932899935171,252.226046100026
"198",302,30,1,0.7,3,0,0.47,0,253.579136000015,6,0.992099500028417,262.615674100001
"199",302,31,1,0.1,4,0,3.57,1,263.630242899992,3,1.01789839996491,269.697099199984
"200",302,32,1,0.5,4,0,0.43,1,270.686227700091,4.8,0.506451399996877,278.052919900045
"201",302,33,1,0.3,3,0,1.24,1,279.552743899985,5.4,0.70099919999484,287.697164300014
"202",302,34,1,0.5,4,0,0.86,1,289.005112400046,5.3,0.586678099934943,296.92256950005
"203",302,35,1,0.7,2,0,0.37,0,298.34366750007,2.6,0.969266800093465,303.953260999988
"204",302,36,1,0.3,4,0,0.69,1,304.990743400063,2.4,0.930382500053383,310.36111529998
"205",302,37,1,0.5,3,0,0.66,1,311.437004600069,4.4,1.00377640000079,318.88137670001
"206",302,38,1,0.1,2,0,2,0,319.884578100056,3,0.700464099994861,325.620856900001
"207",302,39,1,0.7,2,0,0.28,0,326.928953499999,5.8,0.999651900026947,335.770268800086
"208",302,40,1,0.1,4,0,4,0,336.777773900074,5.1,0.634211000055075,344.553114000009
"209",302,41,1,0.3,2,0,0.59,1,345.924912400078,5.6,0.41762690001633,353.996390899993
"210",302,42,1,0.1,2,0,0.4,1,355.584891900071,2.3,0.722415000083856,360.657029900001
"211",302,43,1,0.3,2,0,0.89,1,361.944844000041,6,0.976930600008927,370.957279000082
"212",302,44,1,0.7,2,0,0.19,0,371.989553300082,4.8,0.859909899998456,379.689762800001
"213",302,45,1,0.1,3,0,2.68,1,380.839525000076,5.2,0.709918700042181,388.795568800066
"214",302,46,1,0.7,3,0,0.16,1,390.092668100027,2.8,1.21988879994024,396.145702700014
"215",302,47,1,0.3,4,0,3.12,0,396.933473700075,3.3,0.662627900019288,402.951424899977
"216",302,48,1,0.5,3,0,1.1,0,404.294421800063,3.9,0.750855099991895,410.999257800053
"217",302,49,1,0.3,4,0,4,0,412.256388899987,3.3,0.555376700009219,418.161958800047
"218",302,50,1,0.5,2,0,0.18,1,419.613378899987,5.8,1.23784189997241,428.684473600006
"219",302,51,1,0.7,2,0,0.56,1,429.452197200037,4.1,0.969139700056985,436.556470600073
"220",302,52,1,0.1,2,0,1.19,1,437.595186299994,3.2,0.471134499995969,443.298099200008
"221",302,53,1,0.1,3,0,3,0,444.833154599997,3.7,0.667901000007987,451.232262699981
"222",302,54,1,0.7,3,0,1.17,0,452.570685800049,4.7,0.530464300070889,459.835230500088
"223",302,55,1,0.7,4,0,0.33,1,461.310860200087,5.5,0.91049189993646,469.835876700003
"224",302,56,1,0.3,3,0,0.83,1,470.931818600046,4.6,0.643275100039318,478.217720100074
"225",302,57,2,0.1,4,0,4,0,479.583579300088,5.8,0.434943299973384,487.854563400033
"226",302,58,2,0.5,3,0,1.31,0,489.427465100074,4.8,0.797856000019237,497.070072800037
"227",302,59,2,0.3,4,0,3.12,0,498.27835440007,5.7,0.734089499921538,506.753636399982
"228",302,60,2,0.3,2,0,0.59,1,508.026048200089,5.6,1.47248729993589,517.138555600075
"229",302,61,2,0.7,3,0,0.94,0,517.673845699988,4.3,0.635999099933542,524.642532900092
"230",302,62,2,0.7,3,0,0.7,0,526.012901999988,5.4,0.925902899936773,534.372540700017
"231",302,63,2,0.5,2,0,0.18,1,535.453496000031,4.3,0.707218399969861,542.501673600054
"232",302,64,2,0.1,2,0,2,0,543.803803100018,5.9,0.566957799950615,552.307258100016
"233",302,65,2,0.7,2,0,0.28,1,553.745698200073,4.8,0.614527700003237,561.194761399995
"234",302,66,2,0.7,2,0,0.19,1,562.589252599981,5.4,1.43691749998834,571.469428300043
"235",302,67,2,0.3,4,0,4,0,572.041428000084,2.8,1.22686789999716,578.106031400035
"236",302,68,2,0.5,4,0,0.43,1,578.885483700084,5.7,1.02367030002642,587.644732700079
"237",302,69,2,0.5,2,0,0.07,1,588.627655700082,3.1,0.974442899925634,594.742477199994
"238",302,70,2,0.5,4,0,0.86,1,595.77619470004,4.1,1.18944259989075,603.106230000034
"239",302,71,2,0.7,2,0,0.37,0,603.922686100006,3.6,0.868966000038199,610.42568580003
"240",302,72,2,0.1,2,0,2,0,611.56277910003,3.7,0.492062099976465,617.785065200063
"241",302,73,2,0.3,4,0,4,0,619.300212400034,4.5,0.441826900001615,626.29106790002
"242",302,74,2,0.1,3,0,3,0,627.85768320004,2.4,0.507583099999465,632.803730300046
"243",302,75,2,0.1,3,0,3,0,634.305561200017,3.8,0.634963100077584,640.776616899995
"244",302,76,2,0.1,3,0,1.79,1,642.150959899998,2.5,0.901455500046723,647.593526800047
"245",302,77,2,0.5,2,0,0.02,1,648.698916400084,4.6,0.944354000035673,656.278084299993
"246",302,78,2,0.7,4,0,0.26,0,657.339120100019,2.4,1.15376390004531,662.932895999984
"247",302,79,2,0.7,4,0,0.33,1,663.784891200019,5.6,0.0896448999410495,671.512923200033
"248",302,80,2,0.1,3,0,2.68,0,673.431922000018,5.1,0.774050500011072,681.364555699984
"249",302,81,2,0.7,4,0,0.2,1,682.598504599999,5.3,0.991085699992254,690.929309500032
"250",302,82,2,0.3,4,0,2.08,0,691.945718900068,5.2,1.41495939996094,700.614483400015
"251",302,83,2,0.3,2,0,1.48,1,701.207749600057,2.5,0.854990700026974,706.605732100084
"252",302,84,2,0.7,3,0,0.47,0,707.757241500076,4,0.679277600022033,714.475626000087
"253",302,85,2,0.1,2,0,2,0,715.802580600022,5.1,0.443062399979681,723.389730200055
"254",302,86,2,0.3,3,0,2.07,0,724.953053200035,2.4,0.837903100065887,730.233970800065
"255",302,87,2,0.5,3,0,0.44,1,731.405202100053,5.9,0.423506699968129,739.760842600022
"256",302,88,2,0.7,4,0,0.13,1,741.342645200086,4.9,0.572962599922903,748.905388900079
"257",302,89,2,0.5,3,0,0.88,1,750.337774100015,2.7,0.608330599963665,755.672558300081
"258",302,90,2,0.3,3,0,0.28,1,757.070507500088,4.8,0.512142200022936,764.409770200029
"259",302,91,2,0.5,3,0,1.1,1,765.903684800025,4.5,1.63849689997733,774.073029600084
"260",302,92,2,0.3,3,0,1.24,1,774.443325,3.5,0.720259500085376,780.708897200064
"261",302,93,2,0.5,4,0,1.08,1,781.995060899993,4.7,1.67632199998479,790.413853200036
"262",302,94,2,0.5,2,0,0.14,0,790.745237100055,2.5,1.19746870000381,796.481055599987
"263",302,95,2,0.3,2,0,1.19,0,797.29266580008,5.9,0.603876500041224,805.836631700047
"264",302,96,2,0.7,2,0,0.46,0,807.24070580001,4,1.30579599994235,814.57781450008
"265",302,97,2,0.3,4,0,4,0,815.280546499998,2.2,0.821622399962507,820.346888900036
"266",302,98,2,0.7,3,0,1.17,0,821.534279200016,4.2,1.35439009999391,829.148875900079
"267",302,99,2,0.3,3,0,0.83,1,829.802897899994,2.4,0.752232300001197,835.003629100043
"268",302,100,2,0.1,4,0,0.79,1,836.257202700013,5.4,1.22573479998391,844.921353399986
"269",302,101,2,0.3,2,0,0.89,1,845.701718700002,4.7,0.749185199965723,853.194224199979
"270",302,102,2,0.1,4,0,2.38,1,854.450789500028,4.6,0.535356500069611,861.637655200087
"271",302,103,2,0.1,4,0,3.57,0,863.110152999987,3.4,0.868590799975209,869.412169400021
"272",302,104,2,0.5,2,0,0.11,1,870.552199000027,3.7,0.943347699940205,877.232535800082
"273",302,105,2,0.1,2,0,1.79,1,878.294995500008,5.7,0.775475299917161,886.801611999981
"274",302,106,2,0.7,2,0,0.06,0,888.034939400037,2.2,NA,NA
"275",302,107,2,0.5,3,0,0.66,0,894.268683100003,5.5,0.462138300063089,902.275965600042
"276",302,108,2,0.5,4,0,0.65,1,903.819184700027,5.8,1.28396079991944,912.945798200089
"277",302,109,2,0.7,4,0,0.4,0,913.668187399977,2.3,0.545958200003952,918.544952500029
"278",302,110,2,0.1,4,0,4,0,920.007789700059,4.1,0.477895500021987,926.616810000036
"279",302,111,2,0.3,3,0,1.66,0,928.148081900086,2.4,NA,NA
"280",302,112,2,0.1,2,0,1.19,1,934.58693780005,5.3,0.466601600055583,942.386222800007
"281",302,113,3,0.3,3,0,1.24,1,943.926000099978,2.1,0.567219099961221,948.64442320005
"282",302,114,3,0.1,2,0,1.19,0,950.084573000087,5.2,1.35762509994674,958.672655100003
"283",302,115,3,0.3,3,0,0.28,1,959.32128230005,2.1,1.01239060005173,964.479348700028
"284",302,116,3,0.5,2,0,0.02,1,965.474355700077,4.8,0.566133099957369,972.882313000038
"285",302,117,3,0.7,4,0,0.4,1,974.324322000029,2.7,0.753810600028373,979.809467700077
"286",302,118,3,0.5,2,0,0.11,1,981.064102999982,6,0.585071499925107,989.786927200039
"287",302,119,3,0.7,3,0,0.16,0,991.208203300019,5.9,0.133692999952473,999.332272600033
"288",302,120,3,0.7,2,0,0.19,0,1001.2076202,5.2,0.647513899952173,1009.14737290004
"289",302,121,3,0.7,4,0,0.33,1,1010.50774290005,4.4,0.864422800019383,1017.81212510006
"290",302,122,3,0.1,3,0,1.79,1,1018.9540724,3,0.981797200045548,1024.98575530003
"291",302,123,3,0.1,3,0,0.6,1,1026.0120169,3.9,0.476453099981882,1032.42982790002
"292",302,124,3,0.5,3,0,0.88,1,1033.96195700008,5.7,0.549880699953064,1042.25723730004
"293",302,125,3,0.3,4,0,4,1,1043.7141482,4.2,1.25738779990934,1051.21842639998
"294",302,126,3,0.1,4,0,3.57,1,1051.96708030009,5.2,0.849461600068025,1060.06006809999
"295",302,127,3,0.1,3,0,3,0,1061.21661650005,3.7,0.526085199904628,1067.47722100001
"296",302,128,3,0.7,2,0,0.28,0,1068.95807040005,3.4,0.573061100090854,1074.96171920002
"297",302,129,3,0.7,3,0,1.17,0,1076.3953035,5.9,0.490014099981636,1084.82649420004
"298",302,130,3,0.3,2,0,0.59,1,1086.34468730004,6,0.849205199978314,1095.22521619999
"299",302,131,3,0.5,2,0,0.07,1,1096.38438529999,2.6,0.454646100057289,1101.48112920008
"300",302,132,3,0.7,4,0,0.26,0,1103.03341859998,5.1,0.886170899961144,1111.05089010007
"301",302,133,3,0.5,4,0,0.65,1,1112.17131080001,2,0.4391997999046,1116.65070490004
"302",302,134,3,0.3,3,0,2.48,0,1118.22014710004,3.8,0.654939799918793,1124.70946240006
"303",302,135,3,0.5,4,0,0.43,1,1126.06098810001,4.5,0.503356899949722,1133.11360120005
"304",302,136,3,0.7,2,0,0.46,0,1134.61945600004,3.3,0.476578400004655,1140.43430860003
"305",302,137,3,0.7,2,0,0.37,0,1141.96344309999,2.9,0.451681799953803,1147.34652480006
"306",302,138,3,0.1,2,0,1.79,1,1148.90268579999,3.4,0.834655900020152,1155.17459810001
"307",302,139,3,0.3,3,0,2.07,0,1156.34927250003,3.2,0.638527999981306,1162.23270450009
"308",302,140,3,0.3,3,0,1.66,1,1163.59993260005,4.9,0.71079759998247,1171.24997980008
"309",302,141,3,0.7,4,0,0.13,0,1172.54829479998,5.3,0.706042399979196,1180.60123380006
"310",302,142,3,0.5,3,0,0.44,1,1181.90093210002,3.6,0.533621700014919,1188.06568750006
"311",302,143,3,0.7,3,0,0.7,1,1189.54096600006,4.1,0.352327200002037,1196.03338630009
"312",302,144,3,0.3,2,0,1.19,0,1197.6898542,6,0.619006900000386,1206.34111879999
"313",302,145,3,0.3,4,0,4,0,1207.72901860008,6,0.555353999952786,1216.31425350008
"314",302,146,3,0.3,4,0,2.08,0,1217.76571270009,2.7,1.28736319998279,1223.79377780005
"315",302,147,3,0.5,2,0,0.14,1,1224.51405940007,5.9,0.61906519997865,1233.0655886
"316",302,148,3,0.1,4,0,2.38,1,1234.45342360006,5,1.1775662000291,1242.67745249998
"317",302,149,3,0.3,3,0,0.83,1,1243.50698300009,5.1,0.681874600006267,1251.3381235
"318",302,150,3,0.7,3,0,0.47,0,1252.66500590008,4.4,0.945463499985635,1260.04207580001
"319",302,151,3,0.3,2,0,1.48,0,1261.10536809999,5.2,0.498794300016016,1268.93781899998
"320",302,152,3,0.3,4,0,3.12,0,1270.44476740004,3.4,0.576199200004339,1276.44990240003
"321",302,153,3,0.1,2,0,2,0,1277.87969860004,2.3,0.833021800033748,1283.05002259999
"322",302,154,3,0.1,4,0,4,0,1284.22442049999,5.7,0.52150689996779,1292.48131230008
"323",302,155,3,0.1,3,0,2.68,0,1293.96774640004,4.7,0.673194600036368,1301.37836199999
"324",302,156,3,0.5,4,0,1.3,0,1302.7116409,3.5,NA,NA
"325",302,157,3,0.5,3,0,0.66,1,1310.24851230008,4.8,0.472466300008819,1317.5539226
"326",302,158,3,0.1,4,0,4,0,1319.08767370007,4.8,0.541729100048542,1326.46536160004
"327",302,159,3,0.3,2,0,0.89,1,1327.93119750009,5.2,0.671887699980289,1335.84251680004
"328",302,160,3,0.1,2,0,2,0,1337.18132560002,5.5,0.345113300019875,1345.06125600007
"329",302,161,3,0.5,3,0,1.1,0,1346.72349860007,4.1,1.98093940003309,1354.84244510008
"330",302,162,3,0.1,3,0,3,1,1354.87154670001,3.2,0.838394200080074,1360.95115380001
"331",302,163,3,0.5,2,0,0.18,1,1362.11894449999,5.3,0.553790999925695,1370.00648069999
"332",302,164,3,0.5,4,0,1.08,0,1371.45883490006,5.3,0.819336000015028,1379.71640680009
"333",302,165,3,0.1,4,0,4,0,1380.90581790009,5.2,0.591856800019741,1388.73901590006
"334",302,166,3,0.7,3,0,0.94,0,1390.15457500005,5.8,0.470565400086343,1398.48418859998
"335",302,167,3,0.5,4,0,0.86,0,1400.02291330008,4,NA,NA
"336",302,168,3,0.7,4,0,0.2,1,1408.0503305,2.4,0.970091700088233,1413.45882210007
"337",304,1,1,0.5,4,0,1.84,0,10.0167105,3.8,0.747850499930792,16.6587761000264
"338",304,2,1,0.1,4,0,4,0,17.9168741999893,5.6,0.22361099999398,25.7763166000368
"339",304,3,1,0.1,4,0,1.63,1,27.558053500019,5.9,0.327983499970287,35.8175048000412
"340",304,4,1,0.1,3,0,1.21,1,37.4949130000314,4,0.135290800011717,43.6564055000199
"341",304,5,1,0.3,2,0,0.14,0,45.5272410999751,2,0.801696300040931,50.3614368999843
"342",304,6,1,0.3,3,0,0.52,1,51.5661387,4.5,0.37006020010449,58.4634768000105
"343",304,7,1,0.5,3,0,1.4,0,60.0985540000256,4.8,0.356336899916641,67.2806724000257
"344",304,8,1,0.7,2,0,0.03,0,68.9294456000207,5.4,0.499492399976589,76.8564599000383
"345",304,9,1,0.1,2,0,0.44,1,78.3620284999488,4.1,0.689121500006877,85.1754747999366
"346",304,10,1,0.5,4,0,3.06,0,86.4914102000184,5.1,0.239615000085905,93.8559657000005
"347",304,11,1,0.1,4,0,4,0,95.6214464999503,3.1,0.157906199921854,100.90379510005
"348",304,12,1,0.7,4,0,0.26,1,102.751035099966,2.3,0.220344800036401,107.296381599968
"349",304,13,1,0.7,3,0,0.03,0,109.08123250003,5.4,0.989159499993548,117.495723600034
"350",304,14,1,0.5,3,0,0.47,1,118.51163329999,4.2,0.120077100000344,124.856674700044
"351",304,15,1,0.7,4,0,0.13,1,126.741836100002,4.1,0.253468299983069,133.119549099938
"352",304,16,1,0.5,4,0,0.41,1,134.871284699999,5.1,0.276252900017425,142.271926800022
"353",304,17,1,0.3,2,0,0.18,1,144.000865099952,4.6,0.390378599986434,151.015815399936
"354",304,18,1,0.7,3,0,0.04,0,152.630653999979,5.1,0.612728100037202,160.367782899993
"355",304,19,1,0.5,2,0,0.05,0,161.760031800019,5.6,0.407183200004511,169.791507499991
"356",304,20,1,0.5,3,0,0.94,1,171.389480200014,4.4,0.330033499980345,178.143617399968
"357",304,21,1,0.1,2,0,0.74,1,179.81872770004,5.1,0.0485857999883592,186.991911299992
"358",304,22,1,0.3,3,0,0.42,1,188.948727000039,2.7,0.582943900022656,194.256168499938
"359",304,23,1,0.5,2,0,0.1,0,195.678298400017,6,0.729381400044076,204.431735799997
"360",304,24,1,0.3,4,0,3.06,0,205.707490799949,5.7,0.231822100002319,213.66396210005
"361",304,25,1,0.3,4,0,1.22,1,215.437293499941,2.6,0.217405000003055,220.279528600047
"362",304,26,1,0.3,3,0,0.63,1,222.06744959997,5.1,0.279641500092112,229.471806499991
"363",304,27,1,0.7,4,0,0.2,0,231.197620899999,2.3,1.1975316000171,236.719229800045
"364",304,28,1,0.5,2,0,0.07,1,237.52678840002,2.3,1.50865580001846,243.359886300052
"365",304,29,1,0.1,3,0,2.41,1,243.856301299995,4.8,0.0790914000244811,250.759999500006
"366",304,30,1,0.7,3,0,0.02,1,252.686036500032,6,0.0574389999965206,260.767640699982
"367",304,31,1,0.1,4,0,2.45,1,262.715447199997,3,0.171694400021806,267.911809899961
"368",304,32,1,0.5,4,0,1.22,1,269.745135999983,4.8,1.04607440007385,277.615666199941
"369",304,33,1,0.3,3,0,0.32,1,278.574743499979,5.4,0.369320300058462,286.369986900012
"370",304,34,1,0.5,4,0,2.45,0,288.005833799951,5.3,0.333452999941073,295.664488799986
"371",304,35,1,0.7,2,0,0.02,0,297.3361362,2.6,1.54368229990359,303.503774699988
"372",304,36,1,0.3,4,0,0.41,1,303.965211299947,2.4,0.21031940006651,308.599789300002
"373",304,37,1,0.5,3,0,0.7,1,310.394470699946,4.4,0.525194599991664,317.344109399943
"374",304,38,1,0.1,2,0,0.59,1,318.824126199936,3,0.502798600005917,324.352600499988
"375",304,39,1,0.7,2,0,0.02,0,325.854939399986,5.8,0.00834469997789711,333.70175560005
"376",304,40,1,0.1,4,0,3.26,1,335.698483600048,5.1,0.712906699976884,343.536443299963
"377",304,41,1,0.3,2,0,0.07,1,344.828573200037,5.6,0.0829560999991372,352.536214299966
"378",304,42,1,0.1,2,0,0.1,1,354.458457999979,2.3,0.217366600059904,359.000270299963
"379",304,43,1,0.3,2,0,0.11,1,360.788059700048,6,0.187883000005968,368.999694500002
"380",304,44,1,0.7,2,0,0.01,1,370.816881399951,4.8,0.382694399915636,378.023719000048
"381",304,45,1,0.1,3,0,1.81,1,379.646022000001,5.2,0.113522599916905,386.983970099944
"382",304,46,1,0.7,3,0,0.01,1,388.875479700044,2.8,0.0437531000934541,393.743795700022
"383",304,47,1,0.3,4,0,1.84,1,395.705181499943,3.3,0.946126700029708,401.975933999987
"384",304,48,1,0.5,3,0,1.17,0,403.03487209999,3.9,0.616376399993896,409.576087899972
"385",304,49,1,0.3,4,0,2.45,0,410.964786099968,3.3,0.110712399939075,416.399737700005
"386",304,50,1,0.5,2,0,0.12,1,418.294267499936,5.8,0.864998299977742,426.983743099961
"387",304,51,1,0.7,2,0,0.04,0,428.12378699996,4.1,0.143772500101477,434.391542600002
"388",304,52,1,0.1,2,0,0.29,1,436.253009099979,3.2,0.122292499989271,441.600001099985
"389",304,53,1,0.1,3,0,3,0,443.482774800039,3.7,0.248636999982409,449.455528100021
"390",304,54,1,0.7,3,0,0.05,1,451.212070700014,4.7,0.111105100018904,458.047704200028
"391",304,55,1,0.7,4,0,0.33,1,459.941651599947,5.5,1.04614460002631,468.511948899948
"392",304,56,1,0.3,3,0,0.21,1,469.47093099996,4.6,0.352789500029758,476.448223700048
"393",304,57,2,0.1,4,0,4,0,478.100589000038,5.8,0.203388200025074,486.127844900009
"394",304,58,2,0.5,3,0,1.4,1,487.929783000029,4.8,0.262192100053653,495.016500600032
"395",304,59,2,0.3,4,0,1.84,1,496.75943700003,5.7,0.260120999999344,504.744162800023
"396",304,60,2,0.3,2,0,0.07,1,506.48911189998,5.6,0.432063200045377,514.5444441
"397",304,61,2,0.7,3,0,0.04,0,516.117448000005,4.3,0.902412499999627,523.344093100051
"398",304,62,2,0.7,3,0,0.03,0,524.446779399994,5.4,1.48101280000992,533.351818199968
"399",304,63,2,0.5,2,0,0.12,1,533.875940399943,4.3,0.383561599999666,540.583893700037
"400",304,64,2,0.1,2,0,0.88,1,542.205427099951,5.9,0.0865895000752062,550.216176399961
"401",304,65,2,0.7,2,0,0.02,0,552.134657099959,4.8,0.360816599917598,559.319611000014
"402",304,66,2,0.7,2,0,0.01,1,560.963934400002,5.4,0.900035899947397,569.288244799944
"403",304,67,2,0.3,4,0,3.06,0,570.393371099955,2.8,0.430429899948649,575.64832779998
"404",304,68,2,0.5,4,0,1.22,1,577.222978899954,5.7,0.852777299936861,585.800616599969
"405",304,69,2,0.5,2,0,0.05,1,586.952926400001,3.1,0.226818299968727,592.303826699965
"406",304,70,2,0.5,4,0,2.45,0,594.082077699946,4.1,0.705983699997887,600.912912999978
"407",304,71,2,0.7,2,0,0.02,0,602.212037699996,3.6,0.227989600040019,608.064334399998
"408",304,72,2,0.1,2,0,0.59,1,609.841550000012,3.7,0.64195890002884,616.208261799999
"409",304,73,2,0.3,4,0,3.67,0,617.571423399961,4.5,0.368134699994698,624.464728699997
"410",304,74,2,0.1,3,0,3,0,626.101668599993,2.4,0.234602299984545,630.76001149998
"411",304,75,2,0.1,3,0,2.41,1,632.530684900004,3.8,0.132835699943826,638.488400300033
"412",304,76,2,0.1,3,0,1.21,0,640.361305600032,2.5,0.395178899983875,645.280452999985
"413",304,77,2,0.5,2,0,0.02,1,646.89075260004,4.6,0.333494000020437,653.84823350003
"414",304,78,2,0.7,4,0,0.26,0,655.519867499941,2.4,NA,NA
"415",304,79,2,0.7,4,0,0.33,0,661.946612500004,5.6,0.538580899941735,670.112702499959
"416",304,80,2,0.1,3,0,1.81,1,671.579176799976,5.1,0.152801500051282,678.856289900024
"417",304,81,2,0.7,4,0,0.2,0,680.708562999964,5.3,0.327367200050503,688.360084200045
"418",304,82,2,0.3,4,0,1.22,1,690.037795000011,5.2,0.0982303000055254,697.360255299951
"419",304,83,2,0.3,2,0,0.18,1,699.26704549999,2.5,0.169187000021338,703.960633700015
"420",304,84,2,0.7,3,0,0.02,1,705.796554100001,4,1.80362999998033,713.624500800041
"421",304,85,2,0.1,2,0,0.74,0,713.825974000036,5.1,NA,NA
"422",304,86,2,0.3,3,0,0.52,1,722.948840899975,2.4,0.353067699936219,727.728158100042
"423",304,87,2,0.5,3,0,0.47,1,729.380261000013,5.9,0.239188199979253,737.54417160002
"424",304,88,2,0.7,4,0,0.13,0,739.310038099997,4.9,0.662221600068733,746.896421700018
"425",304,89,2,0.5,3,0,0.94,1,748.239302400034,2.7,1.5652103999164,754.528622800019
"426",304,90,2,0.3,3,0,0.07,1,754.968443699996,4.8,0.11954819993116,761.912326000049
"427",304,91,2,0.5,3,0,1.17,0,763.797966900049,4.5,0.221972199971788,770.544473599992
"428",304,92,2,0.3,3,0,0.32,1,772.327765699942,3.5,0.58007730008103,778.432299999986
"429",304,93,2,0.5,4,0,3.06,0,779.857317400048,4.7,0.0421793999848887,786.624230499961
"430",304,94,2,0.5,2,0,0.1,1,788.587319500046,2.5,0.057049399940297,793.168477799976
"431",304,95,2,0.3,2,0,0.14,1,795.116697899997,5.9,0.270468800095841,803.312203099951
"432",304,96,2,0.7,2,0,0.03,0,805.046773000038,4,0.265611399896443,811.336484399973
"433",304,97,2,0.3,4,0,2.45,0,813.07594879996,2.2,0.275351299904287,817.576263200026
"434",304,98,2,0.7,3,0,0.05,1,819.306003100006,4.2,1.42995010002051,826.960490899975
"435",304,99,2,0.3,3,0,0.21,1,827.53550150001,2.4,0.952523899963126,832.912526099943
"436",304,100,2,0.1,4,0,0.54,1,833.965102800052,5.4,0.194730399991386,841.584633899969
"437",304,101,2,0.3,2,0,0.11,1,843.395080300048,4.7,0.664685199968517,850.784305999987
"438",304,102,2,0.1,4,0,1.63,1,852.124727100017,4.6,0.130752899916843,858.880570600042
"439",304,103,2,0.1,4,0,2.45,0,860.755332299974,3.4,0.588360900059342,866.768578800024
"440",304,104,2,0.5,2,0,0.07,1,868.185706299962,3.7,0.242040900047868,874.152529899962
"441",304,105,2,0.1,2,0,0.44,1,875.915642700042,5.7,0.103097999934107,883.744545800029
"442",304,106,2,0.7,2,0,0.01,1,885.646748099942,2.2,0.161623200052418,890.032300399966
"443",304,107,2,0.5,3,0,0.7,0,891.875839799992,5.5,1.8242599000223,901.224572599982
"444",304,108,2,0.5,4,0,1.84,1,901.40541170002,5.8,1.39480710006319,910.625908999937
"445",304,109,2,0.7,4,0,0.4,0,911.236176099977,2.3,0.640463199932128,916.200304699945
"446",304,110,2,0.1,4,0,3.26,1,917.564909699955,4.1,0.0705610000295565,923.760489900014
"447",304,111,2,0.3,3,0,0.42,1,925.695015599951,2.4,0.481584200053476,930.600670699961
"448",304,112,2,0.1,2,0,0.29,1,932.124123499962,5.3,0.0800690000178292,939.528598099947
"449",304,113,3,0.3,3,0,0.32,1,941.453593099955,2.1,0.342766700079665,945.920413500047
"450",304,114,3,0.1,2,0,0.29,1,947.582952699973,5.2,0.18496069998946,954.992498000036
"451",304,115,3,0.3,3,0,0.07,1,956.812951799948,2.1,0.326696300064214,961.26462329994
"452",304,116,3,0.5,2,0,0.02,1,962.94299729995,4.8,1.00950680009555,970.776513500023
"453",304,117,3,0.7,4,0,0.4,0,971.772247100016,2.7,0.39968749997206,976.896398599958
"454",304,118,3,0.5,2,0,0.07,1,978.502156800008,6,0.681744299945422,987.208687599981
"455",304,119,3,0.7,3,0,0.01,0,988.532001400017,5.9,1.70459990005475,998.160763900029
"456",304,120,3,0.7,2,0,0.01,0,998.461244900012,5.2,0.275054799974896,1005.96065090003
"457",304,121,3,0.7,4,0,0.33,0,1007.6906489,4.4,0.149510800023563,1014.26445989998
"458",304,122,3,0.1,3,0,1.21,1,1016.12006390002,3,0.767880800063722,1021.91241720004
"459",304,123,3,0.1,3,0,0.4,1,1023.14956639998,3.9,0.188423400046304,1029.26467159996
"460",304,124,3,0.5,3,0,0.94,0,1031.08143310004,5.7,0.139335899963044,1038.94488199998
"461",304,125,3,0.3,4,0,2.45,0,1040.81070270005,4.2,1.39768019993789,1048.4330049
"462",304,126,3,0.1,4,0,2.45,1,1049.04053799994,5.2,0.368275400018319,1056.63340049994
"463",304,127,3,0.1,3,0,2.41,1,1058.27051199996,3.7,0.901591999921948,1064.89676170005
"464",304,128,3,0.7,2,0,0.02,0,1066.00022599997,3.4,0.671924700029194,1072.09615330002
"465",304,129,3,0.7,3,0,0.05,1,1073.4293055,5.9,0.910897299996577,1082.26490399998
"466",304,130,3,0.3,2,0,0.07,1,1083.35926039994,6,0.168764399946667,1091.55266199994
"467",304,131,3,0.5,2,0,0.05,0,1093.38906379999,2.6,0.22019929997623,1098.23386759998
"468",304,132,3,0.7,4,0,0.26,1,1100.01879829995,5.1,0.505730300094001,1107.64893479994
"469",304,133,3,0.5,4,0,1.84,1,1109.14824779995,2,0.340222400031053,1113.51306270005
"470",304,134,3,0.3,3,0,0.63,1,1115.17792020005,3.8,0.406444299966097,1121.40882100002
"471",304,135,3,0.5,4,0,1.22,0,1123.00754370005,4.5,0.844737200066447,1130.37676819996
"472",304,136,3,0.7,2,0,0.03,0,1131.53732030001,3.3,0.171628699987195,1137.03365180001
"473",304,137,3,0.7,2,0,0.02,1,1138.86725869996,2.9,1.00169129995629,1144.79262369999
"474",304,138,3,0.1,2,0,0.44,0,1145.79611680005,3.4,NA,NA
"475",304,139,3,0.3,3,0,0.52,1,1153.21926289995,3.2,0.140090000000782,1158.58499
"476",304,140,3,0.3,3,0,0.42,1,1160.45010479994,4.9,0.106549899908714,1167.48093289998
"477",304,141,3,0.7,4,0,0.13,1,1169.37950879999,5.3,0.121164900017902,1176.82472579996
"478",304,142,3,0.5,3,0,0.47,1,1178.70863150002,3.6,0.444344399962574,1184.77705110004
"479",304,143,3,0.7,3,0,0.03,1,1186.33792179998,4.1,1.11465790006332,1193.57647299999
"480",304,144,3,0.3,2,0,0.14,1,1194.46687929996,6,0.117182099958882,1202.60859660001
"481",304,145,3,0.3,4,0,3.06,0,1204.49647080002,6,0.00815989996772259,1212.53392199997
"482",304,146,3,0.3,4,0,1.22,1,1214.53132319998,2.7,0.121041200007312,1219.37724419998
"483",304,147,3,0.5,2,0,0.1,0,1221.26140299998,5.9,0.631192700006068,1229.81657899998
"484",304,148,3,0.1,4,0,1.63,1,1231.19054500002,5,0.425888699945062,1238.64100850001
"485",304,149,3,0.3,3,0,0.21,1,1240.22018569999,5.1,0.32820999994874,1247.67287100002
"486",304,150,3,0.7,3,0,0.02,1,1249.34972679999,4.4,1.19458189990837,1256.96899319999
"487",304,151,3,0.3,2,0,0.18,1,1257.77948709996,5.2,0.236965900054201,1265.24113720004
"488",304,152,3,0.3,4,0,1.84,1,1267.00933180004,3.4,0.0875080999685451,1272.52109970001
"489",304,153,3,0.1,2,0,0.74,1,1274.43899119995,2.3,1.92548540001735,1280.68939189997
"490",304,154,3,0.1,4,0,4,0,1280.76891350001,5.7,0.0517927999608219,1288.54453940003
"491",304,155,3,0.1,3,0,1.81,1,1290.49788699998,4.7,0.210626299958676,1297.43285810004
"492",304,156,3,0.5,4,0,3.67,0,1299.22738659999,3.5,0.136261700070463,1304.88892509998
"493",304,157,3,0.5,3,0,0.7,1,1306.75799469999,4.8,0.307193500106223,1313.8890959
"494",304,158,3,0.1,4,0,3.26,0,1315.5870845,4.8,0.524823299958371,1322.93661159999
"495",304,159,3,0.3,2,0,0.11,1,1324.4171819,5.2,0.32798229996115,1331.96979220002
"496",304,160,3,0.1,2,0,0.59,1,1333.64704339998,5.5,0.125792299979366,1341.2972573
"497",304,161,3,0.5,3,0,1.17,0,1343.1764307,4.1,0.0121454000473022,1349.31960509997
"498",304,162,3,0.1,3,0,3,0,1351.31292369997,3.2,0.0326232999796048,1356.56940879999
"499",304,163,3,0.5,2,0,0.12,1,1358.54211160005,5.3,0.766550500062294,1366.63312669995
"500",304,164,3,0.5,4,0,3.06,0,1367.871652,5.3,0.14834040007554,1375.34510579996
"501",304,165,3,0.1,4,0,4,0,1377.20229219995,5.2,0.142393099959008,1384.56857190002
"502",304,166,3,0.7,3,0,0.04,0,1386.43150359998,5.8,0.512866399949417,1394.76923690003
"503",304,167,3,0.5,4,0,2.45,0,1396.26150839997,4,0.0352753000333905,1402.32115229999
"504",304,168,3,0.7,4,0,0.2,1,1404.29123500001,2.4,0.0451490998966619,1408.76126019994
"505",305,1,1,0.5,4,0,1.39,1,10.0144889999647,3.8,0.919784100027755,16.7601474999683
"506",305,2,1,0.1,4,0,3.55,1,17.8457396000158,5.6,0.553233599988744,26.0241955999518
"507",305,3,1,0.1,4,0,1.18,1,27.4762878000038,5.9,0.390793799888343,35.7924726000056
"508",305,4,1,0.1,3,0,1.79,1,37.4072043999331,4,0.798951800097711,44.2322741999524
"509",305,5,1,0.3,2,0,1.19,1,45.438920399989,2,0.598011000081897,50.0649985999335
"510",305,6,1,0.3,3,0,3,0,51.473155100015,4.5,0.593922200030647,58.5916515999706
"511",305,7,1,0.5,3,0,3,0,60.002814300009,4.8,0.47717610001564,67.3037205999717
"512",305,8,1,0.7,2,0,0.03,0,68.8316395999864,5.4,0.486835799994878,76.7441286999965
"513",305,9,1,0.1,2,0,1.79,1,78.2623929999536,4.1,0.22121780004818,84.6089418999618
"514",305,10,1,0.5,4,0,2.31,0,86.3930047999602,5.1,0.0342457999940962,93.5521534999134
"515",305,11,1,0.1,4,0,2.96,1,95.523010600009,3.1,0.664606899954379,101.312305899919
"516",305,12,1,0.7,4,0,0.05,0,102.65277159994,2.3,1.17468650010414,108.151354399975
"517",305,13,1,0.7,3,0,0.86,0,108.981808300014,5.4,0.0250378999626264,116.432185299927
"518",305,14,1,0.5,3,0,1.39,0,118.412059399998,4.2,0.499447099980898,125.13577719999
"519",305,15,1,0.7,4,0,0.02,1,126.641533399932,4.1,1.13798180001322,133.90374749992
"520",305,16,1,0.5,4,0,0.31,1,134.770798299927,5.1,0.360967100015841,142.25607569993
"521",305,17,1,0.3,2,0,1.48,1,143.900175399962,4.6,0.675605399999768,151.200204599998
"522",305,18,1,0.7,3,0,1.15,1,152.529657599982,5.1,0.785300899995491,160.440213899943
"523",305,19,1,0.5,2,0,0.59,1,161.660114699975,5.6,0.82703050004784,170.111981599941
"524",305,20,1,0.5,3,0,2.78,0,171.290032399935,4.4,0.517260299995542,178.231816699961
"525",305,21,1,0.1,2,0,2,0,179.719616299961,5.1,0.675484600011259,187.519927099929
"526",305,22,1,0.3,3,0,3,0,188.849726399989,2.7,0.402073899982497,193.97617369995
"527",305,23,1,0.5,2,0,1.19,0,195.579122499912,6,0.0603451000060886,203.663966599968
"528",305,24,1,0.3,4,0,4,0,205.608810500009,5.7,0.707326000090688,214.039964600001
"529",305,25,1,0.3,4,0,1.67,1,215.337708199979,2.6,1.04574900004081,221.008491699933
"530",305,26,1,0.3,3,0,3,0,221.967815199983,5.1,0.00390169990714639,229.101376599981
"531",305,27,1,0.7,4,0,0.04,1,231.10256629996,2.3,0.605436800047755,236.032133099972
"532",305,28,1,0.5,2,0,0.89,0,237.431749299983,2.3,1.39585569989868,243.152330499957
"533",305,29,1,0.1,3,0,3,1,243.76161149994,4.8,0.942212500027381,251.528129399987
"534",305,30,1,0.7,3,0,0.58,0,252.591030900017,6,0.478936600033194,261.096097799949
"535",305,31,1,0.1,4,0,1.77,0,262.622193999938,3,1.06617359991651,268.712667000014
"536",305,32,1,0.5,4,0,0.92,1,269.651599499979,4.8,0.132231299998239,276.608379099984
"537",305,33,1,0.3,3,0,2.56,0,278.481164600002,5.4,1.04700939997565,286.95257720002
"538",305,34,1,0.5,4,0,1.85,0,287.910725899972,5.3,0.884664600016549,296.120052999933
"539",305,35,1,0.7,2,0,0.02,1,297.240470299963,2.6,0.975728599936701,302.839985699975
"540",305,36,1,0.3,4,0,0.56,1,303.869324599975,2.4,0.570343100000173,308.864250299986
"541",305,37,1,0.5,3,0,2.09,0,310.299049799913,4.4,0.501043199910782,317.224288299913
"542",305,38,1,0.1,2,0,2,0,318.728451099945,3,0.895756099955179,324.648064299952
"543",305,39,1,0.7,2,0,0.02,1,325.757380399969,5.8,0.937994199921377,334.520198500017
"544",305,40,1,0.1,4,0,2.36,1,335.587258299929,5.1,0.240123800002038,342.952644799952
"545",305,41,1,0.3,2,0,0.59,1,344.717602899997,5.6,1.05046619998757,353.392488399986
"546",305,42,1,0.1,2,0,0.4,1,354.347081199987,2.3,0.560705000068992,359.231921499944
"547",305,43,1,0.3,2,0,0.89,1,360.676291699987,6,0.915620199986733,369.616182099911
"548",305,44,1,0.7,2,0,0.01,1,370.705755000003,4.8,1.20595350000076,378.735877899919
"549",305,45,1,0.1,3,0,2.68,1,379.535063299933,5.2,0.664527300046757,387.424917800003
"550",305,46,1,0.7,3,0,0.19,1,388.765393599984,2.8,0.978477100026794,394.56845599995
"551",305,47,1,0.3,4,0,2.51,1,395.595033699996,3.3,0.241001899936236,401.160416799947
"552",305,48,1,0.5,3,0,3,0,402.924483499955,3.9,0.863219600054435,409.712233699975
"553",305,49,1,0.3,4,0,3.35,0,410.85406459996,3.3,0.629388500005007,416.808258399949
"554",305,50,1,0.5,2,0,1.48,0,418.184043899993,5.8,1.22393560002092,427.232471699943
"555",305,51,1,0.7,2,0,0.04,1,428.01378509996,4.1,0.445937199983746,434.584167699912
"556",305,52,1,0.1,2,0,1.19,1,436.143365999917,3.2,0.216187599929981,441.584283599979
"557",305,53,1,0.1,3,0,3,0,443.373127199942,3.7,0.374617599998601,449.472229399951
"558",305,54,1,0.7,3,0,1.44,0,451.102708699997,4.7,0.253049499937333,458.080573200015
"559",305,55,1,0.7,4,0,0.06,1,459.832518699928,5.5,0.195626799948514,467.551977399969
"560",305,56,1,0.3,3,0,1.7,1,469.361660299939,4.6,0.222498500021175,476.20875859994
"561",305,57,2,0.1,4,0,2.96,0,477.991309299949,5.8,1.36056249996182,487.177081499947
"562",305,58,2,0.5,3,0,3,0,487.82168449997,4.8,0.554838699987158,495.199983399943
"563",305,59,2,0.3,4,0,2.51,0,496.65020709997,5.7,0.313557099900208,504.688390999916
"564",305,60,2,0.3,2,0,0.59,1,506.379975299933,5.6,0.228279100032523,514.232559399912
"565",305,61,2,0.7,3,0,1.15,0,516.009333799942,4.3,0.122970999917015,522.456618799944
"566",305,62,2,0.7,3,0,0.86,1,524.338798400015,5.4,0.509070099913515,532.272738599917
"567",305,63,2,0.5,2,0,1.48,0,533.768740599975,4.3,1.41179010004271,541.504907299997
"568",305,64,2,0.1,2,0,2,0,542.098375499947,5.9,0.114059899933636,550.13618209993
"569",305,65,2,0.7,2,0,0.02,1,552.027234699926,4.8,0.133303000009619,558.984322299948
"570",305,66,2,0.7,2,0,0.01,1,560.856113499962,5.4,0.183964899973944,568.464384299936
"571",305,67,2,0.3,4,0,4,1,570.285522099934,2.8,0.715232999995351,575.824732700014
"572",305,68,2,0.5,4,0,0.92,1,577.114634700003,5.7,0.449178299983032,585.288731899927
"573",305,69,2,0.5,2,0,0.59,1,586.844705399941,3.1,0.831693000043742,592.800765499938
"574",305,70,2,0.5,4,0,1.85,1,593.974236899987,4.1,0.821469699963927,600.920647899969
"575",305,71,2,0.7,2,0,0.02,1,602.104236299987,3.6,0.544649499934167,608.273016099934
"576",305,72,2,0.1,2,0,2,0,609.733433299931,3.7,1.0948113000486,616.55239289999
"577",305,73,2,0.3,4,0,4,1,617.46264849999,4.5,0.0853736000135541,624.072469200008
"578",305,74,2,0.1,3,0,3,1,625.992257799953,2.4,0.255706700030714,630.672128499951
"579",305,75,2,0.1,3,0,3,1,632.421502499958,3.8,0.691386100021191,638.936222499935
"580",305,76,2,0.1,3,0,1.79,1,640.25006849994,2.5,0.99360639997758,645.768894299981
"581",305,77,2,0.5,2,0,0.2,1,646.780371399946,4.6,0.595863900030963,654.000694699935
"582",305,78,2,0.7,4,0,0.05,1,655.409928299952,2.4,0.254649199894629,660.088560999953
"583",305,79,2,0.7,4,0,0.06,1,661.839111699956,5.6,0.441823399974965,669.904983200016
"584",305,80,2,0.1,3,0,2.68,1,671.468261400005,5.1,0.671610199962743,679.264896999928
"585",305,81,2,0.7,4,0,0.04,1,680.598330599954,5.3,0.213951100013219,688.136144199991
"586",305,82,2,0.3,4,0,1.67,1,689.927351200022,5.2,0.240674100001343,697.392837599968
"587",305,83,2,0.3,2,0,1.48,1,699.157246000017,2.5,0.415173300076276,704.096839500009
"588",305,84,2,0.7,3,0,0.58,1,705.686636599945,4,0.553593899938278,712.264809899963
"589",305,85,2,0.1,2,0,2,0,713.716439899988,5.1,0.392163799959235,721.232446499984
"590",305,86,2,0.3,3,0,3,0,722.845370199997,2.4,0.115384000004269,727.384650499909
"591",305,87,2,0.5,3,0,1.39,1,729.274369599996,5.9,0.385702400002629,737.584944500006
"592",305,88,2,0.7,4,0,0.02,1,739.204147799988,4.9,0.472673899959773,746.601364100003
"593",305,89,2,0.5,3,0,2.78,1,748.133824100019,2.7,0.246228399919346,753.104647799977
"594",305,90,2,0.3,3,0,0.57,1,754.863472700003,4.8,1.12912170006894,762.817127499962
"595",305,91,2,0.5,3,0,3,0,763.693070999929,4.5,0.543460399960168,770.760308099911
"596",305,92,2,0.3,3,0,2.56,1,772.222052700003,3.5,0.390130799962208,778.137001499999
"597",305,93,2,0.5,4,0,2.31,1,779.752128499909,4.7,0.724151200032793,787.200910500018
"598",305,94,2,0.5,2,0,1.19,1,788.481842199923,2.5,0.595356600009836,793.601574699976
"599",305,95,2,0.3,2,0,1.19,1,795.011274599936,5.9,0.809521600021981,803.744942999911
"600",305,96,2,0.7,2,0,0.03,1,804.940547999926,4,0.563729399931617,811.528931399924
"601",305,97,2,0.3,4,0,3.35,1,812.970295200008,2.2,0.838154099998064,818.033000499941
"602",305,98,2,0.7,3,0,1.44,1,819.199932500022,4.2,0.592823700048029,826.016784999985
"603",305,99,2,0.3,3,0,1.7,1,827.429595399997,2.4,0.570587399997748,832.424565599998
"604",305,100,2,0.1,4,0,0.39,1,833.859061799943,5.4,0.533415900077671,841.816984899924
"605",305,101,2,0.3,2,0,0.89,1,843.289237499936,4.7,0.459506899933331,850.473095799913
"606",305,102,2,0.1,4,0,1.18,1,852.018757299986,4.6,0.125903200008906,858.768979999935
"607",305,103,2,0.1,4,0,1.77,1,860.648261899943,3.4,0.336418099934235,866.408929199912
"608",305,104,2,0.5,2,0,0.89,1,868.078285899945,3.7,1.18127449997701,874.984699000022
"609",305,105,2,0.1,2,0,1.79,1,875.808505199966,5.7,0.627986199920997,884.160911399988
"610",305,106,2,0.7,2,0,0.01,1,885.537959499983,2.2,0.366815999965183,890.129055899917
"611",305,107,2,0.5,3,0,2.09,1,891.767813600018,5.5,0.572197300032713,899.864970800001
"612",305,108,2,0.5,4,0,1.39,1,901.297840600018,5.8,0.702699499903247,909.824950899929
"613",305,109,2,0.7,4,0,0.07,1,911.127287599957,2.3,1.18955250002909,916.640894299955
"614",305,110,2,0.1,4,0,2.36,1,917.456935899914,4.1,1.07550330006052,924.657160499948
"615",305,111,2,0.3,3,0,3,0,925.586918100016,2.4,0.638173299957998,930.648816399975
"616",305,112,2,0.1,2,0,1.19,1,932.01573470002,5.3,0.812493199948221,940.152660499909
"617",305,113,3,0.3,3,0,2.56,0,941.345917199971,2.1,0.474562200019136,945.945055100019
"618",305,114,3,0.1,2,0,1.19,1,947.47556479997,5.2,0.245002400013618,954.944902500021
"619",305,115,3,0.3,3,0,0.57,1,956.705810999963,2.1,0.274270999943838,961.104895600001
"620",305,116,3,0.5,2,0,0.2,1,962.83648519998,4.8,0.732003299985081,970.392615899909
"621",305,117,3,0.7,4,0,0.07,1,971.665797799942,2.7,0.194559899973683,976.584596799919
"622",305,118,3,0.5,2,0,0.89,0,978.39513640001,6,1.09330249996856,987.513321799925
"623",305,119,3,0.7,3,0,0.19,1,988.425118100015,5.9,0.651953599997796,997.001427199924
"624",305,120,3,0.7,2,0,0.01,1,998.354696499999,5.2,0.566205099923536,1006.14546889998
"625",305,121,3,0.7,4,0,0.06,1,1007.5843936,4.4,0.760296499938704,1014.76881399995
"626",305,122,3,0.1,3,0,1.79,1,1016.01360429998,3,0.554983000038192,1021.59350810002
"627",305,123,3,0.1,3,0,0.6,1,1023.04364129994,3.9,0.281441000057384,1029.24946650001
"628",305,124,3,0.5,3,0,2.78,1,1030.97306949995,5.7,0.583576600067317,1039.28133989999
"629",305,125,3,0.3,4,0,3.35,1,1040.70286369999,4.2,0.257446700008586,1047.1849165
"630",305,126,3,0.1,4,0,1.77,1,1048.93254479999,5.2,0.452303800033405,1056.60907739995
"631",305,127,3,0.1,3,0,3,0,1058.16185049992,3.7,0.21917769999709,1064.10486329999
"632",305,128,3,0.7,2,0,0.02,1,1065.89078759996,3.4,0.261485599912703,1071.57671920001
"633",305,129,3,0.7,3,0,1.44,1,1073.32089500001,5.9,0.499940500012599,1081.74511499994
"634",305,130,3,0.3,2,0,0.59,1,1083.25025119993,6,0.518352699931711,1091.79297539999
"635",305,131,3,0.5,2,0,0.59,1,1093.27969270002,2.6,0.825341599993408,1098.72928259999
"636",305,132,3,0.7,4,0,0.05,1,1099.90899029991,5.1,1.10391529998742,1108.13699349994
"637",305,133,3,0.5,4,0,1.39,1,1109.03854350001,2,0.994268300011754,1114.05726609996
"638",305,134,3,0.3,3,0,3,0,1115.06801239995,3.8,0.428902599960566,1121.32057779992
"639",305,135,3,0.5,4,0,0.92,1,1122.89673559996,4.5,0.403796299942769,1129.82531629992
"640",305,136,3,0.7,2,0,0.03,1,1131.4265995,3.3,0.370644199894741,1137.12103119993
"641",305,137,3,0.7,2,0,0.02,1,1138.75556419999,2.9,0.545310800080188,1144.22507879999
"642",305,138,3,0.1,2,0,1.79,1,1145.6848396,3.4,0.0279835000401363,1151.13711349992
"643",305,139,3,0.3,3,0,3,1,1153.11421229993,3.2,0.239029600052163,1158.57700399996
"644",305,140,3,0.3,3,0,3,0,1160.34297649993,4.9,0.926108999992721,1168.19284949999
"645",305,141,3,0.7,4,0,0.02,1,1169.2718785,5.3,0.740752500016242,1177.33679919993
"646",305,142,3,0.5,3,0,1.39,0,1178.60107859992,3.6,0.631505299941637,1184.85714360001
"647",305,143,3,0.7,3,0,0.86,1,1186.23072170001,4.1,1.13339530001394,1193.48917700001
"648",305,144,3,0.3,2,0,1.19,1,1194.36094169994,6,0.568028299952857,1202.95336319995
"649",305,145,3,0.3,4,0,4,0,1204.39053520001,6,0.0741233000298962,1212.48853660002
"650",305,146,3,0.3,4,0,1.67,1,1214.41958549991,2.7,0.825056800036691,1219.9694992
"651",305,147,3,0.5,2,0,1.19,1,1221.14954249992,5.9,0.151407600031234,1229.2254
"652",305,148,3,0.1,4,0,1.18,1,1231.07915609994,5,0.561900300090201,1238.66555269994
"653",305,149,3,0.3,3,0,1.7,0,1240.10880649998,5.1,0.25591229996644,1247.48966610001
"654",305,150,3,0.7,3,0,0.58,1,1249.23890340002,4.4,0.689737500040792,1256.35348169995
"655",305,151,3,0.3,2,0,1.48,1,1257.66878519999,5.2,0.427674600039609,1265.32115839992
"656",305,152,3,0.3,4,0,2.51,1,1266.898544,3.4,0.51825799990911,1272.84128519997
"657",305,153,3,0.1,2,0,2,0,1274.32801049994,2.3,0.717942399904132,1279.36989789992
"658",305,154,3,0.1,4,0,3.55,1,1280.65712220001,5.7,0.0838648999342695,1288.46569099999
"659",305,155,3,0.1,3,0,2.68,1,1290.38698259997,4.7,1.13778920006007,1298.24964279996
"660",305,156,3,0.5,4,0,2.77,1,1299.11692880001,3.5,1.06407869991381,1305.70536599995
"661",305,157,3,0.5,3,0,2.09,1,1306.64633759996,4.8,0.122826599981636,1313.59321219998
"662",305,158,3,0.1,4,0,2.36,1,1315.47566929995,4.8,0.789171700016595,1323.08972669998
"663",305,159,3,0.3,2,0,0.89,1,1324.30564869998,5.2,0.823418600019068,1332.35327009996
"664",305,160,3,0.1,2,0,2,1,1333.53492319991,5.5,0.00618189992383122,1341.07388689998
"665",305,161,3,0.5,3,0,3,0,1343.07284159993,4.1,0.908179100020789,1350.10466209997
"666",305,162,3,0.1,3,0,3,0,1351.2015507,3.2,0.743500799988396,1357.16886739992
"667",305,163,3,0.5,2,0,1.48,1,1358.43052739999,5.3,0.758165600011125,1366.51341699995
"668",305,164,3,0.5,4,0,2.31,1,1367.76042840001,5.3,0.252765299985185,1375.33808729996
"669",305,165,3,0.1,4,0,2.96,1,1377.09042939998,5.2,0.358537700027227,1384.67356709996
"670",305,166,3,0.7,3,0,1.15,1,1386.32019359991,5.8,1.07300109998323,1395.21764549997
"671",305,167,3,0.5,4,0,1.85,1,1396.14975009998,4,0.651646899990737,1402.82612059999
"672",305,168,3,0.7,4,0,0.04,1,1404.1794433,2.4,0.30199549999088,1408.90531619999
"673",306,1,1,0.5,4,0,0.09,1,10.0136811000993,3.8,1.10315249999985,16.9981698000338
"674",306,2,1,0.1,4,0,4,1,17.9005948000122,5.6,0.149472300079651,25.6870837000897
"675",306,3,1,0.1,4,0,1.97,1,27.5430433000438,5.9,0.174334899988025,35.6472787000239
"676",306,4,1,0.1,3,0,1.15,1,37.4783608000726,4,0.230310600018129,43.7349889000179
"677",306,5,1,0.3,2,0,0.62,1,45.5112769000698,2,0.54484109999612,50.0880901000928
"678",306,6,1,0.3,3,0,3,1,51.5494238000829,4.5,0.292703200015239,58.3671455000294
"679",306,7,1,0.5,3,0,0.13,0,60.0795125000877,4.8,0.468612800003029,67.3744272000622
"680",306,8,1,0.7,2,0,0.03,0,68.9108849000186,5.4,1.0070177000016,77.3445161000127
"681",306,9,1,0.1,2,0,1.37,1,78.3426177001093,4.1,0.483736900030635,84.9513341001002
"682",306,10,1,0.5,4,0,0.15,0,86.47268050001,5.1,1.8895169000607,95.48735150008
"683",306,11,1,0.1,4,0,4,0,95.6029237000039,3.1,0.815161200007424,101.54238930007
"684",306,12,1,0.7,4,0,0.05,0,102.732447300106,2.3,0.453783300006762,107.510500000091
"685",306,13,1,0.7,3,0,0.03,0,109.06179190008,5.4,0.53575549996458,117.022744800081
"686",306,14,1,0.5,3,0,0.04,0,118.492096200003,4.2,0.90652359998785,125.622621200047
"687",306,15,1,0.7,4,0,0.02,1,126.721067100065,4.1,0.673416200093925,133.518775900011
"688",306,16,1,0.5,4,0,0.02,1,134.850594300078,5.1,0.431764299981296,142.407320000115
"689",306,17,1,0.3,2,0,0.78,1,143.980720000109,4.6,0.681590300053358,151.286885000067
"690",306,18,1,0.7,3,0,0.04,0,152.610418700031,5.1,0.231681399978697,159.9665921001
"691",306,19,1,0.5,2,0,0.01,0,161.739999500103,5.6,0.78645339992363,170.150845000055
"692",306,20,1,0.5,3,0,0.08,1,171.369515700033,4.4,0.148378800018691,177.94209710008
"693",306,21,1,0.1,2,0,2,1,179.798983800109,5.1,1.19561629998498,188.118460700032
"694",306,22,1,0.3,3,0,2.74,0,188.927911400096,2.7,0.978572400053963,194.630528000067
"695",306,23,1,0.5,2,0,0.02,0,195.656998800114,6,0.973826400004327,204.65474430006
"696",306,24,1,0.3,4,0,4,0,205.686086800066,5.7,0.356371600064449,213.766275700065
"697",306,25,1,0.3,4,0,1.82,1,215.415024700109,2.6,1.00052090000827,221.039796100114
"698",306,26,1,0.3,3,0,3,0,222.044178700075,5.1,0.166146600036882,229.334721200052
"699",306,27,1,0.7,4,0,0.04,1,231.173746100045,2.3,0.188870699959807,235.686637600069
"700",306,28,1,0.5,2,0,0.02,0,237.503035500064,2.3,0.475311100017279,242.302840100019
"701",306,29,1,0.1,3,0,2.29,1,243.832606700016,4.8,0.485807900084183,251.142848800053
"702",306,30,1,0.7,3,0,0.02,0,252.662144700065,6,0.184495399938896,260.870863500051
"703",306,31,1,0.1,4,0,2.96,1,262.691466800054,3,0.00270850001834333,267.734055800014
"704",306,32,1,0.5,4,0,0.06,1,269.736569600063,4.8,0.326209599967115,276.887156500015
"705",306,33,1,0.3,3,0,2.05,1,278.565990800038,5.4,1.3927657000022,287.382958600065
"706",306,34,1,0.5,4,0,0.12,1,287.995345800067,5.3,1.30308019998483,296.623188100057
"707",306,35,1,0.7,2,0,0.02,0,297.325254500029,2.6,0.881164300022647,302.830657000071
"708",306,36,1,0.3,4,0,0.61,1,303.954630900058,2.4,0.0753766000270844,308.455170700094
"709",306,37,1,0.5,3,0,0.06,1,310.384902000078,4.4,1.20639379997738,318.015345200081
"710",306,38,1,0.1,2,0,1.82,1,318.81403150002,3,1.27987029997166,325.118469300098
"711",306,39,1,0.7,2,0,0.02,0,325.843731000088,5.8,0.0425953000085428,333.710652800044
"712",306,40,1,0.1,4,0,3.95,0,335.673110900098,5.1,0.696743000065908,343.494960600045
"713",306,41,1,0.3,2,0,0.31,1,344.803522700095,5.6,0.61924380005803,353.046868100064
"714",306,42,1,0.1,2,0,0.3,1,354.432647900074,2.3,0.522097499924712,359.279023900046
"715",306,43,1,0.3,2,0,0.47,0,360.76204660011,6,NA,NA
"716",306,44,1,0.7,2,0,0.01,0,370.787475900026,4.8,1.08100479992572,378.695243600057
"717",306,45,1,0.1,3,0,1.72,1,379.619488000055,5.2,1.30716999992728,388.151166600059
"718",306,46,1,0.7,3,0,0.01,0,388.849099700106,2.8,0.429592099972069,394.103027900099
"719",306,47,1,0.3,4,0,2.74,0,395.678603000008,3.3,0.0677530000684783,401.071475600009
"720",306,48,1,0.5,3,0,0.11,0,403.008899900015,3.9,0.305582499946468,409.238938200055
"721",306,49,1,0.3,4,0,3.65,0,410.938732000068,3.3,0.0475861999439076,416.311282000039
"722",306,50,1,0.5,2,0,0.03,0,418.26890200004,5.8,NA,NA
"723",306,51,1,0.7,2,0,0.04,0,428.090321200085,4.1,0.0225840999046341,434.238548600115
"724",306,52,1,0.1,2,0,0.91,1,436.221879000077,3.2,0.417096100049093,441.863318000105
"725",306,53,1,0.1,3,0,2.86,0,443.451923000044,3.7,1.11047930002678,450.287631500047
"726",306,54,1,0.7,3,0,0.05,0,451.182383000036,4.7,0.372052500024438,458.279423600063
"727",306,55,1,0.7,4,0,0.06,0,459.912445700029,5.5,0.522562899976037,467.959239000105
"728",306,56,1,0.3,3,0,1.37,1,469.441703000106,4.6,1.54870699997991,477.615284800064
"729",306,57,2,0.1,4,0,4,0,478.071772000054,5.8,0.0308860000222921,485.926665000035
"730",306,58,2,0.5,3,0,0.13,0,487.901007700013,4.8,0.673409700044431,495.398753500078
"731",306,59,2,0.3,4,0,2.74,0,496.730448800023,5.7,1.03990809991956,505.495120100095
"732",306,60,2,0.3,2,0,0.31,1,506.460513900034,5.6,0.370667699957266,514.455363300047
"733",306,61,2,0.7,3,0,0.04,0,516.089861200075,4.3,1.3689026000211,523.783744400018
"734",306,62,2,0.7,3,0,0.03,0,524.419937000028,5.4,0.866835900000297,532.710812800098
"735",306,63,2,0.5,2,0,0.03,0,533.849067400093,4.3,0.305723599973135,540.479034200078
"736",306,64,2,0.1,2,0,2,0,542.178402600111,5.9,0.0329287999775261,550.134840000072
"737",306,65,2,0.7,2,0,0.02,0,552.107125200098,4.8,0.275631400058046,559.207026400021
"738",306,66,2,0.7,2,0,0.01,0,560.936451100046,5.4,0.446670299977995,568.807143300073
"739",306,67,2,0.3,4,0,4,0,570.365570300026,2.8,0.273034199955873,575.462911400013
"740",306,68,2,0.5,4,0,0.06,1,577.195123100071,5.7,0.519634599913843,585.439932700014
"741",306,69,2,0.5,2,0,0.01,0,586.925393200014,3.1,0.517079600016586,592.566982800025
"742",306,70,2,0.5,4,0,0.12,1,594.055029600044,4.1,0.148323100060225,600.327731800033
"743",306,71,2,0.7,2,0,0.02,0,602.184612500016,3.6,0.23809900006745,608.046816700022
"744",306,72,2,0.1,2,0,1.82,0,609.813947000075,3.7,0.70852320000995,616.247042600065
"745",306,73,2,0.3,4,0,4,0,617.543673500069,4.5,0.219314399990253,624.287113200058
"746",306,74,2,0.1,3,0,2.86,0,626.072915700031,2.4,0.0612241000635549,630.559311900055
"747",306,75,2,0.1,3,0,2.29,0,632.50330500002,3.8,0.127717499970458,638.455238200026
"748",306,76,2,0.1,3,0,1.15,1,640.332616600092,2.5,0.334368700045161,645.191219400032
"749",306,77,2,0.5,2,0,0.01,0,646.862005800009,4.6,0.217403799993917,653.703491200111
"750",306,78,2,0.7,4,0,0.05,1,655.491612500045,2.4,0.203464700025506,660.119486500043
"751",306,79,2,0.7,4,0,0.06,1,661.921238500043,5.6,0.0297173999715596,669.575180000043
"752",306,80,2,0.1,3,0,1.72,1,671.551110100001,5.1,0.707008600002155,679.38298990007
"753",306,81,2,0.7,4,0,0.04,1,680.68106870004,5.3,0.170129399979487,688.175494100084
"754",306,82,2,0.3,4,0,1.82,1,690.010679100058,5.2,1.24383330007549,698.47936560004
"755",306,83,2,0.3,2,0,0.78,1,699.24074300006,2.5,0.554242699989118,704.319107100018
"756",306,84,2,0.7,3,0,0.02,1,705.769957800047,4,1.39660139998887,713.191270400072
"757",306,85,2,0.1,2,0,2,1,713.79974050005,5.1,0.0657582000130787,720.991036000079
"758",306,86,2,0.3,3,0,3,0,722.930441500037,2.4,0.0850670000072569,727.439224500093
"759",306,87,2,0.5,3,0,0.04,1,729.359479500097,5.9,0.715240599936806,737.998986700084
"760",306,88,2,0.7,4,0,0.02,1,739.288872600067,4.9,0.010787200066261,746.226314300089
"761",306,89,2,0.5,3,0,0.08,1,748.220634200028,2.7,0.0942570000188425,753.039354400011
"762",306,90,2,0.3,3,0,0.46,1,754.95002670004,4.8,1.05666529992595,762.831239000079
"763",306,91,2,0.5,3,0,0.11,1,763.779824500089,4.5,0.751539899967611,771.055532200029
"764",306,92,2,0.3,3,0,2.05,0,772.309306400013,3.5,0.578462399891578,778.41524890007
"765",306,93,2,0.5,4,0,0.15,1,779.841869700002,4.7,0.360684799961746,786.927603100077
"766",306,94,2,0.5,2,0,0.02,1,788.572004000074,2.5,0.18325740005821,793.279736100114
"767",306,95,2,0.3,2,0,0.62,0,795.101627700031,5.9,0.525525499950163,803.551416400005
"768",306,96,2,0.7,2,0,0.03,0,805.030978500028,4,0.45714539999608,811.512270800071
"769",306,97,2,0.3,4,0,3.65,0,813.060334700043,2.2,0.86634209996555,818.151726100012
"770",306,98,2,0.7,3,0,0.05,1,819.290484700003,4.2,0.50096079998184,826.015578500112
"771",306,99,2,0.3,3,0,1.37,1,827.51970100007,2.4,0.895058900001459,832.839547300013
"772",306,100,2,0.1,4,0,0.66,1,833.949561700108,5.4,0.457610200042836,841.831436200067
"773",306,101,2,0.3,2,0,0.47,1,843.378926700098,4.7,0.520364900003187,850.623669300112
"774",306,102,2,0.1,4,0,1.97,1,852.108387300046,4.6,0.378682399983518,859.11181770009
"775",306,103,2,0.1,4,0,2.96,0,860.738271900103,3.4,0.876644900068641,867.039801700041
"776",306,104,2,0.5,2,0,0.02,0,868.168345700018,3.7,0.659261799999513,874.551721000113
"777",306,105,2,0.1,2,0,1.37,0,875.897436200059,5.7,NA,NA
"778",306,106,2,0.7,2,0,0.01,0,885.619884200045,2.2,0.112640700070187,889.959226000006
"779",306,107,2,0.5,3,0,0.06,1,891.851694800076,5.5,0.0797740999842063,899.455692900112
"780",306,108,2,0.5,4,0,0.09,1,901.380951400031,5.8,0.354622600018047,909.560054700007
"781",306,109,2,0.7,4,0,0.07,1,911.211176800076,2.3,0.519925200031139,916.055251100101
"782",306,110,2,0.1,4,0,3.95,0,917.540510000079,4.1,0.326485799974762,923.991790600005
"783",306,111,2,0.3,3,0,2.74,0,925.670464700088,2.4,0.471989899990149,930.567631200072
"784",306,112,2,0.1,2,0,0.91,0,932.100877000019,5.3,NA,NA
"785",306,113,3,0.3,3,0,2.05,0,941.422707900056,2.1,0.0745726000750437,945.623333000112
"786",306,114,3,0.1,2,0,0.91,0,947.554078300018,5.2,0.516771299997345,955.295755700092
"787",306,115,3,0.3,3,0,0.46,1,956.784030100098,2.1,0.635661199921742,961.544355600025
"788",306,116,3,0.5,2,0,0.01,0,962.913796200068,4.8,0.725270199938677,970.463527600048
"789",306,117,3,0.7,4,0,0.07,1,971.743336400017,2.7,0.55485850002151,977.023280600086
"790",306,118,3,0.5,2,0,0.02,0,978.473488400108,6,0.149635300040245,986.647529700072
"791",306,119,3,0.7,3,0,0.01,0,988.502984800027,5.9,0.540418799966574,996.96774880006
"792",306,120,3,0.7,2,0,0.01,0,998.432373100077,5.2,0.0547325999941677,1005.71119060006
"793",306,121,3,0.7,4,0,0.06,1,1007.6615555,4.4,0.0896844998933375,1014.17561490007
"794",306,122,3,0.1,3,0,1.15,1,1016.0910109001,3,0.228546700091101,1021.34403230005
"795",306,123,3,0.1,3,0,0.38,1,1023.12052610004,3.9,0.402838800102472,1029.44791820005
"796",306,124,3,0.5,3,0,0.08,1,1031.05024070002,5.7,0.0330366999842227,1038.80752230005
"797",306,125,3,0.3,4,0,3.65,0,1040.77966790006,4.2,0.0348521000705659,1047.03960600006
"798",306,126,3,0.1,4,0,2.96,1,1049.00985720009,5.2,0.652820599963889,1056.88783470006
"799",306,127,3,0.1,3,0,2.29,0,1058.24010350008,3.7,0.914970499929041,1064.87989880005
"800",306,128,3,0.7,2,0,0.02,0,1065.9699579,3.4,0.541425899951719,1071.93533460004
"801",306,129,3,0.7,3,0,0.05,0,1073.39894110011,5.9,0.604468200006522,1081.92807600007
"802",306,130,3,0.3,2,0,0.31,0,1083.32874690008,6,0.150547299999744,1091.50342180009
"803",306,131,3,0.5,2,0,0.01,0,1093.35803460004,2.6,0.905839300015941,1098.88804640004
"804",306,132,3,0.7,4,0,0.05,1,1099.98751500004,5.1,0.0161132999928668,1107.13382980006
"805",306,133,3,0.5,4,0,0.09,1,1109.1228111001,2,0.291941299918108,1113.44007350004
"806",306,134,3,0.3,3,0,3,0,1115.1531753001,3.8,0.0940441000275314,1121.07156290009
"807",306,135,3,0.5,4,0,0.06,1,1122.98278410011,4.5,0.676091899978928,1130.18347280007
"808",306,136,3,0.7,2,0,0.03,0,1131.51244660001,3.3,0.322996799950488,1137.15973710001
"809",306,137,3,0.7,2,0,0.02,0,1138.84184730006,2.9,0.0256134000374004,1143.79129360011
"810",306,138,3,0.1,2,0,1.37,0,1145.77077610011,3.4,0.308609100058675,1151.50381300005
"811",306,139,3,0.3,3,0,3,0,1153.20032270008,3.2,0.167684999993071,1158.59177080006
"812",306,140,3,0.3,3,0,2.74,0,1160.42926700006,4.9,0.0144993999274448,1167.37383000006
"813",306,141,3,0.7,4,0,0.02,1,1169.36458120006,5.3,0.0154929999262094,1176.70391300006
"814",306,142,3,0.5,3,0,0.04,1,1178.69355890003,3.6,0.226091200020164,1184.54380510002
"815",306,143,3,0.7,3,0,0.03,0,1186.32282360003,4.1,0.793218099977821,1193.23986840004
"816",306,144,3,0.3,2,0,0.62,0,1194.45172790007,6,0.555920499959029,1203.03198990005
"817",306,145,3,0.3,4,0,4,0,1204.48112150002,6,0.142630500020459,1212.64772640006
"818",306,146,3,0.3,4,0,1.82,1,1214.51023480005,2.7,0.357027300051413,1219.59190730006
"819",306,147,3,0.5,2,0,0.02,0,1221.2400914001,5.9,1.12276749999728,1230.28795680008
"820",306,148,3,0.1,4,0,1.97,1,1231.17114730005,5,0.41985940001905,1238.61595190002
"821",306,149,3,0.3,3,0,1.37,0,1240.20116290008,5.1,0.546227000071667,1247.8720039
"822",306,150,3,0.7,3,0,0.02,0,1249.33087670011,4.4,1.09263460000511,1256.84766370011
"823",306,151,3,0.3,2,0,0.78,0,1257.76009010011,5.2,0.0953464999329299,1265.07965890004
"824",306,152,3,0.3,4,0,2.74,0,1266.98936760006,3.4,0.618261600029655,1273.03175530001
"825",306,153,3,0.1,2,0,2,0,1274.41856520006,2.3,0.609175599995069,1279.35171730001
"826",306,154,3,0.1,4,0,4,0,1280.74772120011,5.7,0.103956500068307,1288.5756794
"827",306,155,3,0.1,3,0,1.72,1,1290.47748660005,4.7,0.894001200096682,1298.09629600006
"828",306,156,3,0.5,4,0,0.18,1,1299.20735450007,3.5,0.556656099972315,1305.28832110006
"829",306,157,3,0.5,3,0,0.06,1,1306.7368981,4.8,0.190729399910197,1313.75182450004
"830",306,158,3,0.1,4,0,3.95,0,1315.56637050002,4.8,0.0887715000426397,1322.48075280001
"831",306,159,3,0.3,2,0,0.47,1,1324.3972118001,5.2,0.17832769989036,1331.79976930004
"832",306,160,3,0.1,2,0,1.82,0,1333.62668420002,5.5,0.296553699998185,1341.44802000001
"833",306,161,3,0.5,3,0,0.11,1,1343.15656100004,4.1,0.159186300006695,1349.43979270011
"834",306,162,3,0.1,3,0,2.86,0,1351.28580590012,3.2,0.37703730002977,1356.8879957
"835",306,163,3,0.5,2,0,0.03,0,1358.51602820004,5.3,0.368252400076017,1366.20812560001
"836",306,164,3,0.5,4,0,0.15,1,1367.84493810008,5.3,0.598385200020857,1375.76843710011
"837",306,165,3,0.1,4,0,4,0,1377.17529610009,5.2,0.0891903999727219,1384.48829620006
"838",306,166,3,0.7,3,0,0.04,0,1386.40436180006,5.8,0.235514599946328,1394.46410740004
"839",306,167,3,0.5,4,0,0.12,1,1396.23366080003,4,0.197646700078622,1402.4557367001
"840",306,168,3,0.7,4,0,0.04,1,1404.26321790006,2.4,0.112473700079136,1408.80011760001
"841",307,1,1,0.5,4,0,1.22,1,10.0140609999653,3.8,0.592629300081171,16.4323096999433
"842",307,2,1,0.1,4,0,4,0,17.8450761999702,5.6,0.450677099986933,25.9204293999355
"843",307,3,1,0.1,4,0,1.78,1,27.4750859999331,5.9,0.311761600081809,35.7125937999226
"844",307,4,1,0.1,3,0,1.34,1,37.4062004999723,4,0.0570202000671998,43.4891613998916
"845",307,5,1,0.3,2,0,1,1,45.4378279999364,2,1.24710389995016,50.7138205999509
"846",307,6,1,0.3,3,0,1.44,1,51.4728822999168,4.5,1.26639220002107,59.2642609999748
"847",307,7,1,0.5,3,0,2.27,0,60.0029522998957,4.8,0.277014099992812,67.1043061999371
"848",307,8,1,0.7,2,0,0.12,0,68.832398199942,5.4,0.470811699982733,76.7285873999353
"849",307,9,1,0.1,2,0,1.12,0,78.2628683999646,4.1,0.797449799953029,85.1843643999891
"850",307,10,1,0.5,4,0,2.03,0,86.3918475999963,5.1,1.37201389996335,94.8885237999493
"851",307,11,1,0.1,4,0,4,0,95.5216789999977,3.1,0.442390399985015,101.08824219997
"852",307,12,1,0.7,4,0,1.85,0,102.650926099974,2.3,1.00923389999662,107.984425499919
"853",307,13,1,0.7,3,0,0.62,1,108.980266099912,5.4,0.827251500100829,117.233289599884
"854",307,14,1,0.5,3,0,0.76,1,118.411193699925,4.2,1.02898089995142,125.664191499935
"855",307,15,1,0.7,4,0,0.92,0,126.640303499997,4.1,0.475156000000425,133.240340099903
"856",307,16,1,0.5,4,0,0.27,1,134.770244199899,5.1,0.857941000023857,142.752541699912
"857",307,17,1,0.3,2,0,1.24,0,143.899676099885,4.6,0.340582499979064,150.864291599952
"858",307,18,1,0.7,3,0,0.83,0,152.52881389996,5.1,0.547280399943702,160.200509499991
"859",307,19,1,0.5,2,0,0.11,1,161.658377999905,5.6,1.91766019992065,171.2005585999
"860",307,20,1,0.5,3,0,1.51,0,171.287935399916,4.4,0.312007199972868,178.024226999958
"861",307,21,1,0.1,2,0,1.86,0,179.717305799946,5.1,1.46244759997353,188.304614999914
"862",307,22,1,0.3,3,0,1.15,0,188.847271699924,2.7,0.756986499996856,194.328736299998
"863",307,23,1,0.5,2,0,0.22,0,195.576754199923,6,0.527169300010428,204.127745499951
"864",307,24,1,0.3,4,0,4,0,205.605653799954,5.7,0.359065899974667,213.688400499988
"865",307,25,1,0.3,4,0,1.75,1,215.334419199964,2.6,0.897073499974795,220.856168299913
"866",307,26,1,0.3,3,0,1.73,1,221.964133399888,5.1,0.320082999998704,229.408568699961
"867",307,27,1,0.7,4,0,1.39,0,231.093465999933,2.3,1.17458099999931,236.592396199936
"868",307,28,1,0.5,2,0,0.16,0,237.422935899929,2.3,1.20532670000102,242.952453299891
"869",307,29,1,0.1,3,0,2.68,0,243.752266899915,4.8,0.855926999938674,251.432536099921
"870",307,30,1,0.7,3,0,0.41,0,252.581675199908,6,0.306590899941511,260.912368399906
"871",307,31,1,0.1,4,0,2.67,0,262.610792599968,3,1.50128269998822,269.136829199968
"872",307,32,1,0.5,4,0,0.81,1,269.640830599936,4.8,0.735004000016488,277.200341999996
"873",307,33,1,0.3,3,0,0.86,1,278.470395399956,5.4,0.31399319996126,286.208881799947
"874",307,34,1,0.5,4,0,1.62,1,287.899931399967,5.3,1.06367520010099,296.288517199922
"875",307,35,1,0.7,2,0,0.1,0,297.229913099902,2.6,0.434898899984546,302.288479699986
"876",307,36,1,0.3,4,0,0.58,1,303.858820199966,2.4,0.333246499998495,308.616514999885
"877",307,37,1,0.5,3,0,1.13,0,310.288321099943,4.4,1.15215550002176,317.864525799989
"878",307,38,1,0.1,2,0,1.49,0,318.717429999961,3,NA,NA
"879",307,39,1,0.7,2,0,0.07,0,325.740326399915,5.8,0.370678099920042,333.937378099887
"880",307,40,1,0.1,4,0,3.56,1,335.571781899896,5.1,0.448181999963708,343.144842399983
"881",307,41,1,0.3,2,0,0.5,0,344.701753399917,5.6,0.970576299936511,353.296287999954
"882",307,42,1,0.1,2,0,0.25,1,354.330663199886,2.3,0.993867599987425,359.648449499975
"883",307,43,1,0.3,2,0,0.75,1,360.659835199942,6,0.0282599000493065,368.712311799987
"884",307,44,1,0.7,2,0,0.05,0,370.689112799941,4.8,0.831667399965227,378.345281199901
"885",307,45,1,0.1,3,0,2.01,0,379.518693999969,5.2,0.961447199922986,387.704708999954
"886",307,46,1,0.7,3,0,0.14,1,388.748369999928,2.8,0.620377999963239,394.192773599993
"887",307,47,1,0.3,4,0,2.62,1,395.577537299949,3.3,0.0824585000518709,400.984629199957
"888",307,48,1,0.5,3,0,1.89,0,402.907254199963,3.9,1.26457270001993,410.096362799988
"889",307,49,1,0.3,4,0,3.49,0,410.836831999943,3.3,1.95905349997338,418.120544099947
"890",307,50,1,0.5,2,0,0.27,1,418.1664496999,5.8,0.458053699927405,426.448912999942
"891",307,51,1,0.7,2,0,0.14,0,427.995936099906,4.1,0.48868080007378,434.608516299981
"892",307,52,1,0.1,2,0,0.74,1,436.124938599998,3.2,0.843507000012323,442.19256789994
"893",307,53,1,0.1,3,0,3,1,443.354135399917,3.7,0.530378099996597,449.60860269994
"894",307,54,1,0.7,3,0,1.04,0,451.083366899984,4.7,NA,NA
"895",307,55,1,0.7,4,0,2.31,0,459.804886499885,5.5,0.468741300050169,467.80030969996
"896",307,56,1,0.3,3,0,0.58,1,469.336634499952,4.6,1.4235293000238,477.384946599952
"897",307,57,2,0.1,4,0,4,0,477.966567099909,5.8,0.337847599992529,486.128649699967
"898",307,58,2,0.5,3,0,2.27,0,487.795875799959,4.8,0.355855699977838,494.976493999944
"899",307,59,2,0.3,4,0,2.62,1,496.625696199946,5.7,0.154554999899119,504.504460999975
"900",307,60,2,0.3,2,0,0.5,0,506.355081399903,5.6,0.805403799982741,514.784301599953
"901",307,61,2,0.7,3,0,0.83,0,515.984323399956,4.3,1.56363870005589,523.872402299894
"902",307,62,2,0.7,3,0,0.62,0,524.313803999918,5.4,0.118774499977008,531.857089599944
"903",307,63,2,0.5,2,0,0.27,1,533.74380419997,4.3,0.500784500036389,540.569264699938
"904",307,64,2,0.1,2,0,2,0,542.07355709991,5.9,0.307130199973471,550.304300699965
"905",307,65,2,0.7,2,0,0.07,0,552.002120099962,4.8,0.38227940001525,559.208604799933
"906",307,66,2,0.7,2,0,0.05,1,560.831315699965,5.4,0.281472200062126,568.536955899908
"907",307,67,2,0.3,4,0,4,0,570.26062299998,2.8,1.06832780002151,576.152446999913
"908",307,68,2,0.5,4,0,0.81,1,577.089220299968,5.7,1.21909440006129,586.033167599933
"909",307,69,2,0.5,2,0,0.11,1,586.819204099942,3.1,0.393675499944948,592.336923599942
"910",307,70,2,0.5,4,0,1.62,1,593.948272199952,4.1,0.776228100061417,600.849152099923
"911",307,71,2,0.7,2,0,0.1,1,602.0780201999,3.6,0.112452800036408,607.816321299993
"912",307,72,2,0.1,2,0,1.49,0,609.709273299901,3.7,1.53529550007079,616.96887099999
"913",307,73,2,0.3,4,0,4,1,617.43873579998,4.5,1.46213999995962,625.424457299989
"914",307,74,2,0.1,3,0,3,0,625.9674984999,2.4,0.689294600044377,631.08097739995
"915",307,75,2,0.1,3,0,2.68,0,632.39691339992,3.8,0.507362400065176,638.729396499926
"916",307,76,2,0.1,3,0,1.34,1,640.227133299923,2.5,0.19327099993825,644.944864799967
"917",307,77,2,0.5,2,0,0.04,1,646.756642399938,4.6,0.388162399991415,653.769270199933
"918",307,78,2,0.7,4,0,1.85,0,655.386171199963,2.4,0.70254249998834,660.513140699943
"919",307,79,2,0.7,4,0,2.31,0,661.815628999961,5.6,0.0330202999757603,669.473092899891
"920",307,80,2,0.1,3,0,2.01,0,671.445094899973,5.1,NA,NA
"921",307,81,2,0.7,4,0,1.39,0,680.566396999988,5.3,0.0854193000122905,687.977205799893
"922",307,82,2,0.3,4,0,1.75,1,689.896880599903,5.2,0.543323899968527,697.665159799973
"923",307,83,2,0.3,2,0,1.24,0,699.127037799917,2.5,0.28619150002487,703.936888799886
"924",307,84,2,0.7,3,0,0.41,0,705.655745399999,4,NA,NA
"925",307,85,2,0.1,2,0,1.86,1,713.677203199943,5.1,0.509989800048061,721.313339799992
"926",307,86,2,0.3,3,0,1.44,0,722.808456199942,2.4,1.01577569998335,728.248609099886
"927",307,87,2,0.5,3,0,0.76,1,729.237901299959,5.9,0.662431699922308,737.824846999953
"928",307,88,2,0.7,4,0,0.92,0,739.167427999899,4.9,NA,NA
"929",307,89,2,0.5,3,0,1.51,0,748.089635599987,2.7,0.777365899994038,753.593114399933
"930",307,90,2,0.3,3,0,0.19,1,754.820830099983,4.8,1.25219269993249,762.89753289998
"931",307,91,2,0.5,3,0,1.89,0,763.6503353999,4.5,0.330481100012548,770.504939399892
"932",307,92,2,0.3,3,0,0.86,1,772.180326699978,3.5,0.216327799949795,777.921137499972
"933",307,93,2,0.5,4,0,2.03,0,779.709879199974,4.7,NA,NA
"934",307,94,2,0.5,2,0,0.22,1,788.431322599994,2.5,0.436300899949856,793.393334799912
"935",307,95,2,0.3,2,0,1,0,794.962121899938,5.9,0.042768600047566,802.928781299968
"936",307,96,2,0.7,2,0,0.12,1,804.891053499887,4,0.445478799985722,811.36080419994
"937",307,97,2,0.3,4,0,3.49,0,812.920441199909,2.2,NA,NA
"938",307,98,2,0.7,3,0,1.04,1,819.142272499972,4.2,1.16081130004022,826.528858899954
"939",307,99,2,0.3,3,0,0.58,0,827.373154499917,2.4,1.81168049992993,833.609386599972
"940",307,100,2,0.1,4,0,0.59,1,833.802668499993,5.4,0.949968800065108,842.177591799991
"941",307,101,2,0.3,2,0,0.75,1,843.232825799962,4.7,0.124285700032488,850.081526399939
"942",307,102,2,0.1,4,0,1.78,1,851.962305999943,4.6,0.0541926000732929,858.641241599922
"943",307,103,2,0.1,4,0,2.67,0,860.592236199998,3.4,NA,NA
"944",307,104,2,0.5,2,0,0.16,1,868.014128999901,3.7,0.19746179995127,873.937506799935
"945",307,105,2,0.1,2,0,1.12,0,875.745280499919,5.7,1.29167800000869,884.760785799939
"946",307,106,2,0.7,2,0,0.02,1,885.474171899958,2.2,1.7348834000295,891.43337949994
"947",307,107,2,0.5,3,0,1.13,0,891.70348539995,5.5,1.12497839995194,900.353275799891
"948",307,108,2,0.5,4,0,1.22,0,901.233585499926,5.8,NA,NA
"949",307,109,2,0.7,4,0,2.77,0,911.055204299977,2.3,NA,NA
"950",307,110,2,0.1,4,0,3.56,0,917.378197299899,4.1,1.71306340000592,925.217907499988
"951",307,111,2,0.3,3,0,1.15,0,925.509946599952,2.4,NA,NA
"952",307,112,2,0.1,2,0,0.74,0,931.931450899923,5.3,1.74419839994516,941.001366999932
"953",307,113,3,0.3,3,0,0.86,1,941.262248799903,2.1,1.24637539999094,946.633243899909
"954",307,114,3,0.1,2,0,0.74,1,947.391937499982,5.2,1.08092970005237,955.697670199908
"955",307,115,3,0.3,3,0,0.19,1,956.621873099939,2.1,1.77518130000681,962.521161899902
"956",307,116,3,0.5,2,0,0.04,0,962.75116539991,4.8,0.377895300043747,969.953282799921
"957",307,117,3,0.7,4,0,2.77,0,971.580480799894,2.7,NA,NA
"958",307,118,3,0.5,2,0,0.16,0,978.30196699989,6,0.377300500054844,986.70534799993
"959",307,119,3,0.7,3,0,0.14,1,988.333134699962,5.9,0.271935800090432,996.529158999911
"960",307,120,3,0.7,2,0,0.05,0,998.262355999905,5.2,NA,NA
"961",307,121,3,0.7,4,0,2.31,0,1007.48405719991,4.4,NA,NA
"962",307,122,3,0.1,3,0,1.34,1,1015.90845179989,3,0.0355130999814719,1020.96932009992
"963",307,123,3,0.1,3,0,0.45,1,1022.93908709998,3.9,0.185704099945724,1029.0490458
"964",307,124,3,0.5,3,0,1.51,0,1030.86858539993,5.7,0.128801200073212,1038.72137269995
"965",307,125,3,0.3,4,0,3.49,0,1040.59761889989,4.2,1.11539100005757,1047.93749599997
"966",307,126,3,0.1,4,0,2.67,0,1048.82721349993,5.2,NA,NA
"967",307,127,3,0.1,3,0,2.68,0,1058.04920259991,3.7,0.570304999942891,1064.34575899993
"968",307,128,3,0.7,2,0,0.07,0,1065.78053439991,3.4,0.356955299968831,1071.56158119999
"969",307,129,3,0.7,3,0,1.04,0,1073.20970199991,5.9,0.643543899990618,1081.77732829994
"970",307,130,3,0.3,2,0,0.5,1,1083.1387769999,6,0.302457899902947,1091.46556739998
"971",307,131,3,0.5,2,0,0.11,0,1093.16817959992,2.6,1.09702480002306,1098.88932239998
"972",307,132,3,0.7,4,0,1.85,0,1099.79734519997,5.1,0.215637200046331,1107.13756759989
"973",307,133,3,0.5,4,0,1.22,1,1108.9270290999,2,0.786187699995935,1113.73776729999
"974",307,134,3,0.3,3,0,1.73,1,1114.95655349991,3.8,1.15701149997767,1121.93775389995
"975",307,135,3,0.5,4,0,0.81,0,1122.78589409997,4.5,1.47537010000087,1130.78585519991
"976",307,136,3,0.7,2,0,0.12,0,1131.31559539994,3.3,0.729681900003925,1137.36946999992
"977",307,137,3,0.7,2,0,0.1,1,1138.6449388999,2.9,1.39196269994136,1144.96187879995
"978",307,138,3,0.1,2,0,1.12,1,1145.57503009995,3.4,0.922462100046687,1151.92119139992
"979",307,139,3,0.3,3,0,1.44,0,1153.00401129993,3.2,NA,NA
"980",307,140,3,0.3,3,0,1.15,1,1160.22608539998,4.9,0.0733369999798015,1167.22559599997
"981",307,141,3,0.7,4,0,0.92,1,1169.15733119997,5.3,0.976151300012134,1177.4574842999
"982",307,142,3,0.5,3,0,0.76,1,1178.48666069994,3.6,1.53796540002804,1185.64912109997
"983",307,143,3,0.7,3,0,0.62,0,1186.11662609992,4.1,0.377136199967936,1192.6179694999
"984",307,144,3,0.3,2,0,1,0,1194.24626619997,6,1.41917030001059,1203.68936869991
"985",307,145,3,0.3,4,0,4,0,1204.27538609994,6,0.326015400001779,1212.62496269995
"986",307,146,3,0.3,4,0,1.75,1,1214.3041999999,2.7,1.27710379997734,1220.30616829998
"987",307,147,3,0.5,2,0,0.22,1,1221.03443529992,5.9,0.851054700091481,1229.80980719998
"988",307,148,3,0.1,4,0,1.78,1,1230.96405729989,5,0.180599600076675,1238.17034939991
"989",307,149,3,0.3,3,0,0.58,0,1239.99501109996,5.1,NA,NA
"990",307,150,3,0.7,3,0,0.41,1,1249.11694429989,4.4,0.611088100005873,1256.15322609991
"991",307,151,3,0.3,2,0,1.24,0,1257.54722719989,5.2,0.606435699970461,1265.37762499996
"992",307,152,3,0.3,4,0,2.62,0,1266.77669309999,3.4,0.592315200017765,1272.79321999999
"993",307,153,3,0.1,2,0,1.86,0,1274.20614709996,2.3,1.10269150009844,1279.63348449999
"994",307,154,3,0.1,4,0,4,1,1280.53586729988,5.7,0.74170520005282,1289.00215019996
"995",307,155,3,0.1,3,0,2.01,1,1290.26557129994,4.7,0.107746999943629,1297.09761299996
"996",307,156,3,0.5,4,0,2.43,0,1298.99503799994,3.5,0.162326499936171,1304.68168029992
"997",307,157,3,0.5,3,0,1.13,0,1306.52452699991,4.8,0.95714750001207,1314.30575589999
"998",307,158,3,0.1,4,0,3.56,0,1315.35361419991,4.8,NA,NA
"999",307,159,3,0.3,2,0,0.75,1,1324.17534129997,5.2,0.368987600086257,1331.76977559994
"1000",307,160,3,0.1,2,0,1.49,0,1333.40595659998,5.5,0.335150400060229,1341.26566269994
"1001",307,161,3,0.5,3,0,1.89,0,1342.93591049989,4.1,NA,NA
"1002",307,162,3,0.1,3,0,3,0,1351.05755709996,3.2,0.134110299986787,1356.4171203
"1003",307,163,3,0.5,2,0,0.27,1,1358.28807799995,5.3,1.14107020001393,1366.75401579996
"1004",307,164,3,0.5,4,0,2.03,0,1367.61802649999,5.3,0.779078199993819,1375.72144219989
"1005",307,165,3,0.1,4,0,4,0,1376.9475616999,5.2,0.150446400046349,1384.32195809996
"1006",307,166,3,0.7,3,0,0.83,1,1386.17700519995,5.8,1.03229629993439,1395.03376199992
"1007",307,167,3,0.5,4,0,1.62,0,1396.00719449995,4,1.44155470002443,1403.47416509991
"1008",307,168,3,0.7,4,0,1.39,1,1404.03769339994,2.4,1.23341190000065,1409.6977585
"1009",308,1,1,0.5,4,0,0.09,0,10.0166678000242,3.8,1.32705640001222,17.2319985999493
"1010",308,2,1,0.1,4,0,4,0,17.9108555999119,5.6,0.829061800031923,26.3756656999467
"1011",308,3,1,0.1,4,0,2.2,1,27.5520298000192,5.9,0.598232099902816,36.079849599977
"1012",308,4,1,0.1,3,0,1.23,1,37.487059099949,4,0.60567069996614,44.1195668999571
"1013",308,5,1,0.3,2,0,1.82,0,45.5202718999935,2,0.814879999961704,50.3682944999309
"1014",308,6,1,0.3,3,0,3,0,51.5599262999604,4.5,0.538342299987562,58.6233098999364
"1015",308,7,1,0.5,3,0,0.92,0,60.0900737999473,4.8,1.07420979999006,67.9908970999531
"1016",308,8,1,0.7,2,0,0.18,0,68.9217305999482,5.4,0.740501799969934,77.0879081999883
"1017",308,9,1,0.1,2,0,1.65,1,78.3524853999261,4.1,0.857620099908672,85.3349313000217
"1018",308,10,1,0.5,4,0,0.15,1,86.4829129999271,5.1,0.535178299993277,94.1432373999851
"1019",308,11,1,0.1,4,0,4,0,95.6131247999147,3.1,0.517465299926698,101.255046000006
"1020",308,12,1,0.7,4,0,0.12,1,102.742709700018,2.3,0.667940800078213,107.735649899929
"1021",308,13,1,0.7,3,0,1.72,0,109.072780599934,5.4,0.772204700042494,117.270985299954
"1022",308,14,1,0.5,3,0,0.31,1,118.50387939997,4.2,0.542564400006086,125.270724299946
"1023",308,15,1,0.7,4,0,0.06,1,126.733223799965,4.1,0.596866599982604,133.454394100001
"1024",308,16,1,0.5,4,0,0.02,1,134.862575699924,5.1,0.603602300048806,142.590909800027
"1025",308,17,1,0.3,2,0,2,0,143.992388700019,4.6,0.72612239990849,151.343090599985
"1026",308,18,1,0.7,3,0,2.29,0,152.622040899936,5.1,0.700094699976034,160.447143799975
"1027",308,19,1,0.5,2,0,0.11,1,161.752182999975,5.6,0.494085799902678,169.870407399954
"1028",308,20,1,0.5,3,0,0.61,1,171.381277299952,4.4,0.75298400002066,178.558962299954
"1029",308,21,1,0.1,2,0,2,0,179.811100099934,5.1,0.655242000008002,187.590475099976
"1030",308,22,1,0.3,3,0,2.86,0,188.940368199954,2.7,0.573615100001916,194.238781899912
"1031",308,23,1,0.5,2,0,0.22,1,195.670238299994,6,0.792139700031839,204.487053900026
"1032",308,24,1,0.3,4,0,4,0,205.700020899996,5.7,0.574704200029373,213.998325399938
"1033",308,25,1,0.3,4,0,1.82,1,215.428857599967,2.6,0.56911120004952,220.622795499978
"1034",308,26,1,0.3,3,0,3,0,222.058793099946,5.1,0.455648199887946,229.63835179992
"1035",308,27,1,0.7,4,0,0.09,1,231.187792400015,2.3,0.566255799960345,236.079004899948
"1036",308,28,1,0.5,2,0,0.16,1,237.517788499943,2.3,0.740239200065844,242.583027599961
"1037",308,29,1,0.1,3,0,2.46,0,243.847823999939,4.8,0.646928700036369,251.319622899988
"1038",308,30,1,0.7,3,0,1.15,1,252.677849799977,6,0.4245721999323,261.127213199972
"1039",308,31,1,0.1,4,0,3.29,1,262.707749899942,3,0.562674700049683,268.295310899965
"1040",308,32,1,0.5,4,0,0.06,1,269.737699699937,4.8,0.404888299992308,276.96691269998
"1041",308,33,1,0.3,3,0,2.14,0,278.567072900012,5.4,0.903435899992473,286.894872199977
"1042",308,34,1,0.5,4,0,0.12,1,287.996748699923,5.3,0.597339799976908,295.918794599944
"1043",308,35,1,0.7,2,0,0.14,0,297.327167299925,2.6,0.903617900097743,302.854796999949
"1044",308,36,1,0.3,4,0,0.61,1,303.956244800007,2.4,0.401764399954118,308.78274039994
"1045",308,37,1,0.5,3,0,0.46,1,310.386118599912,4.4,0.420591500005685,317.231361199985
"1046",308,38,1,0.1,2,0,2,0,318.815819500014,3,0.438093499979004,324.27858319995
"1047",308,39,1,0.7,2,0,0.11,0,325.845590299927,5.8,0.840754800010473,334.510619499953
"1048",308,40,1,0.1,4,0,4,0,335.674959599972,5.1,0.367843500105664,343.166682799929
"1049",308,41,1,0.3,2,0,0.91,1,344.80393439997,5.6,0.690479700104333,353.118919599918
"1050",308,42,1,0.1,2,0,0.37,1,354.433462899993,2.3,0.456066000042483,359.214884400018
"1051",308,43,1,0.3,2,0,1.37,0,360.764032099978,6,1.12226769991685,369.910990700009
"1052",308,44,1,0.7,2,0,0.07,1,370.793873999966,4.8,0.740732099977322,378.359286000021
"1053",308,45,1,0.1,3,0,1.85,1,379.624100100016,5.2,0.454492099932395,387.30345909996
"1054",308,46,1,0.7,3,0,0.38,0,388.854002599954,2.8,0.856669100001454,394.534906100016
"1055",308,47,1,0.3,4,0,2.74,1,395.683608599938,3.3,0.430544400005601,401.438709700014
"1056",308,48,1,0.5,3,0,0.77,1,403.013936299947,3.9,0.772701999987476,409.711443900014
"1057",308,49,1,0.3,4,0,3.65,0,410.943832600024,3.3,0.43422890000511,416.703152799979
"1058",308,50,1,0.5,2,0,0.27,1,418.274010099936,5.8,0.66073789994698,426.75923299999
"1059",308,51,1,0.7,2,0,0.22,1,428.103614300024,4.1,0.819209099980071,435.047025899985
"1060",308,52,1,0.1,2,0,1.1,1,436.232914499938,3.2,1.43754159996752,442.894679300021
"1061",308,53,1,0.1,3,0,3,0,443.462549999938,3.7,0.355731899966486,449.542790599982
"1062",308,54,1,0.7,3,0,2.86,0,451.192473999923,4.7,0.44194609997794,458.359584799968
"1063",308,55,1,0.7,4,0,0.15,1,459.922701800009,5.5,0.367777199950069,467.814877799945
"1064",308,56,1,0.3,3,0,1.43,1,469.452098099981,4.6,0.578597399988212,476.655254199984
"1065",308,57,2,0.1,4,0,4,0,478.081823999994,5.8,0.477070999913849,486.382668199949
"1066",308,58,2,0.5,3,0,0.92,1,487.910732500022,4.8,0.399695800035261,495.135178999975
"1067",308,59,2,0.3,4,0,2.74,1,496.740694399923,5.7,0.405633899965324,504.871218799963
"1068",308,60,2,0.3,2,0,0.91,1,506.470677200006,5.6,0.55997900001239,514.655096899951
"1069",308,61,2,0.7,3,0,2.29,0,516.100290099974,4.3,0.461877199937589,522.886809499934
"1070",308,62,2,0.7,3,0,1.72,0,524.43002259999,5.4,0.441081000026315,532.295770699973
"1071",308,63,2,0.5,2,0,0.27,1,533.859749199939,4.3,0.37543320003897,540.559380399995
"1072",308,64,2,0.1,2,0,2,0,542.189036799944,5.9,0.421796400099993,550.534806799958
"1073",308,65,2,0.7,2,0,0.11,1,552.118127199938,4.8,0.616685200016946,559.559175199945
"1074",308,66,2,0.7,2,0,0.07,1,560.947560100001,5.4,0.563329799915664,568.935600099969
"1075",308,67,2,0.3,4,0,4,0,570.377394399955,2.8,0.493755400064401,575.69489179994
"1076",308,68,2,0.5,4,0,0.06,1,577.206263699918,5.7,0.323746700072661,585.255397300003
"1077",308,69,2,0.5,2,0,0.11,1,586.936655499972,3.1,0.482398700085469,592.543378899922
"1078",308,70,2,0.5,4,0,0.12,1,594.066121999989,4.1,0.384724200004712,600.575280299992
"1079",308,71,2,0.7,2,0,0.14,1,602.195636400022,3.6,0.514771499903873,608.33499220002
"1080",308,72,2,0.1,2,0,2,0,609.825466900016,3.7,0.545844300067984,616.09527229995
"1081",308,73,2,0.3,4,0,4,0,617.554524799925,4.5,0.448743099928834,624.527048900025
"1082",308,74,2,0.1,3,0,3,0,626.083525200025,2.4,0.523292699945159,631.030757999979
"1083",308,75,2,0.1,3,0,2.46,1,632.512663599919,3.8,0.526190500007942,638.863658000017
"1084",308,76,2,0.1,3,0,1.23,1,640.342523899977,2.5,0.644269099924713,645.510905899922
"1085",308,77,2,0.5,2,0,0.04,1,646.871820900007,4.6,0.510793199995533,654.007129199919
"1086",308,78,2,0.7,4,0,0.12,1,655.501563899918,2.4,0.529402900021523,660.455325699993
"1087",308,79,2,0.7,4,0,0.15,1,661.93099449994,5.6,0.39630240004044,669.951459500007
"1088",308,80,2,0.1,3,0,1.85,1,671.560279899975,5.1,0.506211400032043,679.191470099962
"1089",308,81,2,0.7,4,0,0.09,1,680.691009199945,5.3,0.41618479997851,688.431321699987
"1090",308,82,2,0.3,4,0,1.82,1,690.020345099969,5.2,0.394199999980628,697.639500099933
"1091",308,83,2,0.3,2,0,2,0,699.250323900022,2.5,0.512879400048405,704.286677900003
"1092",308,84,2,0.7,3,0,1.15,0,705.778906299965,4,1.05194899998605,712.855588099919
"1093",308,85,2,0.1,2,0,2,0,713.808731299941,5.1,0.42631310003344,721.358847699943
"1094",308,86,2,0.3,3,0,3,0,722.937489399919,2.4,0.404979199985974,727.766691099969
"1095",308,87,2,0.5,3,0,0.31,1,729.366777000017,5.9,0.604540499974973,737.895837899996
"1096",308,88,2,0.7,4,0,0.06,1,739.296771400026,4.9,0.481623400002718,746.703134399955
"1097",308,89,2,0.5,3,0,0.61,1,748.226614599931,2.7,0.712260200059973,753.663418299984
"1098",308,90,2,0.3,3,0,0.48,1,754.956129199942,4.8,0.802624800009653,762.583708400023
"1099",308,91,2,0.5,3,0,0.77,1,763.786259499961,4.5,0.552588399965316,770.863309499924
"1100",308,92,2,0.3,3,0,2.14,0,772.315812199959,3.5,0.495389399933629,778.33579589997
"1101",308,93,2,0.5,4,0,0.15,1,779.84563529992,4.7,0.573266800027341,787.143291999935
"1102",308,94,2,0.5,2,0,0.22,1,788.575139699969,2.5,0.73122139996849,793.831060199998
"1103",308,95,2,0.3,2,0,1.82,0,795.104934399948,5.9,0.402314099948853,803.43175410002
"1104",308,96,2,0.7,2,0,0.18,1,805.03454449994,4,0.780762300011702,811.839673899929
"1105",308,97,2,0.3,4,0,3.65,0,813.063957699924,2.2,0.469922799966298,817.759816900012
"1106",308,98,2,0.7,3,0,2.86,0,819.294960899977,4.2,0.408110300078988,825.927683499991
"1107",308,99,2,0.3,3,0,1.43,1,827.524625599966,2.4,1.00226880004629,832.951264299918
"1108",308,100,2,0.1,4,0,0.73,1,833.954269999987,5.4,0.380996600026265,841.75982929999
"1109",308,101,2,0.3,2,0,1.37,0,843.383932799916,4.7,0.355484200059436,850.464243000024
"1110",308,102,2,0.1,4,0,2.2,1,852.113854199997,4.6,0.373208299977705,859.111394000007
"1111",308,103,2,0.1,4,0,3.29,0,860.743293999927,3.4,0.751786800101399,866.92013689992
"1112",308,104,2,0.5,2,0,0.16,0,868.173359500011,3.7,1.285744599998,875.18382149993
"1113",308,105,2,0.1,2,0,1.65,1,875.903132900014,5.7,0.572311200085096,884.199706999934
"1114",308,106,2,0.7,2,0,0.02,0,885.632578099961,2.2,1.06233149999753,890.919407699956
"1115",308,107,2,0.5,3,0,0.46,1,891.862216999987,5.5,0.444702100008726,899.831321900012
"1116",308,108,2,0.5,4,0,0.09,1,901.391597799957,5.8,0.51174969994463,909.727597099962
"1117",308,109,2,0.7,4,0,0.18,1,911.221078899922,2.3,0.733237500069663,916.279760299949
"1118",308,110,2,0.1,4,0,4,0,917.551693300018,4.1,0.508008799981326,924.183940000017
"1119",308,111,2,0.3,3,0,2.86,0,925.681017700001,2.4,0.62966619990766,930.735965200001
"1120",308,112,2,0.1,2,0,1.1,1,932.11132669996,5.3,0.411494100000709,939.847114000004
"1121",308,113,3,0.3,3,0,2.14,0,941.440752099967,2.1,0.929812100017443,946.495857100002
"1122",308,114,3,0.1,2,0,1.1,1,947.571261300007,5.2,0.39645580004435,955.191554200021
"1123",308,115,3,0.3,3,0,0.48,1,956.80017209996,2.1,1.03494320006575,961.959646999952
"1124",308,116,3,0.5,2,0,0.04,1,962.929751500022,4.8,0.453394900076091,970.207548399922
"1125",308,117,3,0.7,4,0,0.18,1,971.759177499916,2.7,0.315647899988107,976.799539299915
"1126",308,118,3,0.5,2,0,0.16,1,978.489032399957,6,0.79003539995756,987.30379149993
"1127",308,119,3,0.7,3,0,0.38,0,988.518862799974,5.9,1.08398769993801,997.527705300017
"1128",308,120,3,0.7,2,0,0.07,1,998.448817899916,5.2,0.614324299967848,1006.28774189996
"1129",308,121,3,0.7,4,0,0.15,1,1007.67851380003,4.4,0.536634000018239,1014.63948219991
"1130",308,122,3,0.1,3,0,1.23,1,1016.10791459994,3,0.434810800012201,1021.5674685
"1131",308,123,3,0.1,3,0,0.41,1,1023.13777429995,3.9,0.337419099989347,1029.39976189996
"1132",308,124,3,0.5,3,0,0.61,1,1031.06742699991,5.7,0.448214899981394,1039.24025739997
"1133",308,125,3,0.3,4,0,3.65,0,1040.79710770003,4.2,0.880236500059254,1047.90402779996
"1134",308,126,3,0.1,4,0,3.29,1,1049.02884399996,5.2,0.330702899955213,1056.58430589992
"1135",308,127,3,0.1,3,0,2.46,1,1058.25868799991,3.7,0.576819800073281,1064.55989799998
"1136",308,128,3,0.7,2,0,0.11,1,1065.98816219997,3.4,0.587636200012639,1071.99966680002
"1137",308,129,3,0.7,3,0,2.86,0,1073.41735839995,5.9,0.498024499975145,1081.84054519993
"1138",308,130,3,0.3,2,0,0.91,0,1083.34756709996,6,0.596506100031547,1091.96835580003
"1139",308,131,3,0.5,2,0,0.11,1,1093.37683309999,2.6,0.702863599988632,1098.70461809996
"1140",308,132,3,0.7,4,0,0.12,1,1100.00695820001,5.1,0.476199999917299,1107.60812579992
"1141",308,133,3,0.5,4,0,0.09,1,1109.13699989999,2,0.751039800001308,1113.91229359992
"1142",308,134,3,0.3,3,0,3,0,1115.16632919991,3.8,0.969185200054199,1121.95949619997
"1143",308,135,3,0.5,4,0,0.06,1,1122.99535699992,4.5,0.456313199945726,1129.97642590001
"1144",308,136,3,0.7,2,0,0.18,0,1131.52534539998,3.3,0.749468000023626,1137.59981079993
"1145",308,137,3,0.7,2,0,0.14,1,1138.85544930003,2.9,0.532160000060685,1144.31165789999
"1146",308,138,3,0.1,2,0,1.65,1,1145.78462139994,3.4,0.37429659999907,1151.58376860002
"1147",308,139,3,0.3,3,0,3,0,1153.21459699993,3.2,0.624926499905996,1159.06339609995
"1148",308,140,3,0.3,3,0,2.86,0,1160.44359309995,4.9,0.439706099918112,1167.80840899993
"1149",308,141,3,0.7,4,0,0.06,1,1169.37386189995,5.3,0.38135180005338,1177.07968800003
"1150",308,142,3,0.5,3,0,0.31,1,1178.70341409999,3.6,0.559882199973799,1184.88734319992
"1151",308,143,3,0.7,3,0,1.72,0,1186.33257959993,4.1,0.390517799998634,1192.84790749999
"1152",308,144,3,0.3,2,0,1.82,0,1194.4623441,6,0.697492599952966,1203.18460789998
"1153",308,145,3,0.3,4,0,4,0,1204.49291569996,6,0.451096100034192,1212.96791809995
"1154",308,146,3,0.3,4,0,1.82,1,1214.52189590002,2.7,0.37771310005337,1219.62408929993
"1155",308,147,3,0.5,2,0,0.22,1,1221.25202399993,5.9,0.487590499920771,1229.66389979993
"1156",308,148,3,0.1,4,0,2.2,1,1231.18136479997,5,0.434199800016358,1238.63988129993
"1157",308,149,3,0.3,3,0,1.43,1,1240.21076829999,5.1,0.568892400013283,1247.90423109999
"1158",308,150,3,0.7,3,0,1.15,0,1249.34038079996,4.4,0.691211699973792,1256.45588239993
"1159",308,151,3,0.3,2,0,2,0,1257.7697376,5.2,0.549607200082392,1265.54333399993
"1160",308,152,3,0.3,4,0,2.74,1,1266.9988069,3.4,0.624559900024906,1273.04788630002
"1161",308,153,3,0.1,2,0,2,0,1274.42862659995,2.3,0.567612999933772,1279.32006309996
"1162",308,154,3,0.1,4,0,4,0,1280.75749859994,5.7,0.494550399947912,1288.97593790002
"1163",308,155,3,0.1,3,0,1.85,1,1290.48646509997,4.7,0.468627099995501,1297.67986129993
"1164",308,156,3,0.5,4,0,0.18,1,1299.21629929997,3.5,0.347149800043553,1305.08817929996
"1165",308,157,3,0.5,3,0,0.46,1,1306.74612829997,4.8,0.373690699925646,1313.94505639991
"1166",308,158,3,0.1,4,0,4,0,1315.57706669997,4.8,0.430384099949151,1322.83167769993
"1167",308,159,3,0.3,2,0,1.37,0,1324.40645579994,5.2,0.425149099901319,1332.05623410002
"1168",308,160,3,0.1,2,0,2,0,1333.63638899999,5.5,0.351035599946044,1341.51167689997
"1169",308,161,3,0.5,3,0,0.77,1,1343.16571189999,4.1,0.718151999986731,1350.00847809995
"1170",308,162,3,0.1,3,0,3,0,1351.29548560001,3.2,0.272222500061616,1356.79168119992
"1171",308,163,3,0.5,2,0,0.27,1,1358.52467289998,5.3,0.343016099999659,1366.19212000002
"1172",308,164,3,0.5,4,0,0.15,1,1367.85415799997,5.3,0.373342899954878,1375.5523031
"1173",308,165,3,0.1,4,0,4,0,1377.18408269994,5.2,0.376370399957523,1384.78416219994
"1174",308,166,3,0.7,3,0,2.29,0,1386.41284699994,5.8,0.0738515999400988,1394.31229089992
"1175",308,167,3,0.5,4,0,0.12,1,1396.24354099995,4,0.33152530004736,1402.60042169993
"1176",308,168,3,0.7,4,0,0.09,1,1404.27404109994,2.4,0.285256900009699,1408.98386499996
"1177",309,1,1,0.5,4,0,1.61,0,10.0111379999435,3.8,0.0824346001027152,15.9195330999792
"1178",309,2,1,0.1,4,0,4,0,17.8433576999232,5.6,0.563137699966319,26.0302337999456
"1179",309,3,1,0.1,4,0,2.01,1,27.4725660999538,5.9,0.56173369998578,35.9585953999776
"1180",309,4,1,0.1,3,0,0.7,1,37.4019306999398,4,0.419973200070672,43.8461547000334
"1181",309,5,1,0.3,2,0,1.27,0,45.4312794000143,2,0.623420800082386,50.0786471000174
